pc_time,stm32_us,roll_deg,pitch_deg,yaw_deg,yaw_total_deg,gyro_x_dps,gyro_y_dps,gyro_z_dps,acc_x_g,acc_y_g,acc_z_g,state,rx_count,valid_count,last_error,last_std_id,last_ext_id,last_ide,last_rtr,last_dlc,last_type,error_count,hal_error_count,acc_count,gyro_count,angle_count,yaw_count,config_attempt_count,config_done,config_tx_count,config_tx_error_count,last_config_status
2026-05-25T20:35:35.778,374572547,-1.4160000085830688,-0.05299999937415123,0.0,0.0,0.0,0.18310546875,-0.1220703125,0.00048828125,-0.0244140625,1.0009765625,2,445516,445506,8,80,0,0,0,8,83,10,1,74251,74251,222753,74251,1,1,5,0,0
2026-05-25T20:35:35.783,374577545,-1.4160000085830688,-0.05299999937415123,0.0,0.0,0.0,0.18310546875,-0.1220703125,0.00048828125,-0.0244140625,1.0009765625,2,445522,445512,8,80,0,0,0,8,83,10,1,74252,74252,222756,74252,1,1,5,0,0
2026-05-25T20:35:35.788,374582547,-1.4160000085830688,-0.05299999937415123,0.0,0.0,0.0,0.18310546875,-0.1220703125,0.00048828125,-0.0244140625,1.0009765625,2,445528,445518,8,80,0,0,0,8,83,10,1,74253,74253,222759,74253,1,1,5,0,0
2026-05-25T20:35:35.793,374587546,-1.4160000085830688,-0.05299999937415123,0.0,0.0,0.0,0.18310546875,-0.1220703125,0.00048828125,-0.0244140625,1.0009765625,2,445534,445524,8,80,0,0,0,8,83,10,1,74254,74254,222762,74254,1,1,5,0,0
2026-05-25T20:35:35.798,374592545,-1.4160000085830688,-0.05299999937415123,0.0,0.0,0.0,0.18310546875,-0.1220703125,0.00048828125,-0.0244140625,1.0009765625,2,445540,445530,8,80,0,0,0,8,83,10,1,74255,74255,222765,74255,1,1,5,0,0
2026-05-25T20:35:35.803,374597546,-1.4160000085830688,-0.05299999937415123,0.0,0.0,0.0,0.18310546875,-0.1220703125,0.00048828125,-0.0244140625,1.0009765625,2,445546,445536,8,80,0,0,0,8,83,10,1,74256,74256,222768,74256,1,1,5,0,0
2026-05-25T20:35:35.808,374602546,-1.4160000085830688,-0.05299999937415123,0.0,0.0,0.0,0.18310546875,-0.1220703125,0.00048828125,-0.0244140625,1.0009765625,2,445552,445542,8,80,0,0,0,8,83,10,1,74257,74257,222771,74257,1,1,5,0,0
2026-05-25T20:35:35.813,374607549,-1.4160000085830688,-0.05299999937415123,0.0,0.0,0.0,0.18310546875,-0.1220703125,0.00048828125,-0.0244140625,1.0009765625,2,445558,445548,8,80,0,0,0,8,83,10,1,74258,74258,222774,74258,1,1,5,0,0
2026-05-25T20:35:35.818,374612549,-1.4160000085830688,-0.05299999937415123,0.0,0.0,0.0,0.18310546875,-0.1220703125,0.00048828125,-0.0244140625,1.0009765625,2,445564,445554,8,80,0,0,0,8,83,10,1,74259,74259,222777,74259,1,1,5,0,0
2026-05-25T20:35:35.823,374617546,-1.4160000085830688,-0.05299999937415123,0.0,0.0,0.0,0.18310546875,-0.1220703125,0.00048828125,-0.0244140625,1.0009765625,2,445570,445560,8,80,0,0,0,8,83,10,1,74260,74260,222780,74260,1,1,5,0,0
2026-05-25T20:35:35.828,374622548,-1.4160000085830688,-0.05299999937415123,0.0,0.0,0.0,0.18310546875,-0.1220703125,0.00048828125,-0.0244140625,1.0009765625,2,445576,445566,8,80,0,0,0,8,83,10,1,74261,74261,222783,74261,1,1,5,0,0
2026-05-25T20:35:35.833,374627548,-1.4160000085830688,-0.05299999937415123,0.0,0.0,0.0,0.18310546875,-0.1220703125,0.00048828125,-0.0244140625,1.0009765625,2,445582,445572,8,80,0,0,0,8,83,10,1,74262,74262,222786,74262,1,1,5,0,0
2026-05-25T20:35:35.838,374632558,-1.4160000085830688,-0.05299999937415123,0.0,0.0,0.0,0.1220703125,-0.1220703125,0.00048828125,-0.0244140625,1.0009765625,2,445588,445578,8,80,0,0,0,8,83,10,1,74263,74263,222789,74263,1,1,5,0,0
2026-05-25T20:35:35.843,374637549,-1.4160000085830688,-0.05299999937415123,0.0,0.0,0.0,0.1220703125,-0.1220703125,0.00048828125,-0.0244140625,1.0009765625,2,445594,445584,8,80,0,0,0,8,83,10,1,74264,74264,222792,74264,1,1,5,0,0
2026-05-25T20:35:35.848,374642545,-1.4160000085830688,-0.05299999937415123,0.0,0.0,0.0,0.1220703125,-0.1220703125,0.00048828125,-0.0244140625,1.0009765625,2,445600,445590,8,80,0,0,0,8,83,10,1,74265,74265,222795,74265,1,1,5,0,0
2026-05-25T20:35:35.853,374647546,-1.4160000085830688,-0.05299999937415123,0.0,0.0,0.0,0.1220703125,-0.1220703125,0.00048828125,-0.0244140625,1.0009765625,2,445606,445596,8,80,0,0,0,8,83,10,1,74266,74266,222798,74266,1,1,5,0,0
2026-05-25T20:35:35.858,374652547,-1.4160000085830688,-0.05299999937415123,0.0,0.0,0.0,0.1220703125,-0.1220703125,0.00048828125,-0.0244140625,1.0009765625,2,445612,445602,8,80,0,0,0,8,83,10,1,74267,74267,222801,74267,1,1,5,0,0
2026-05-25T20:35:35.863,374657547,-1.4160000085830688,-0.05299999937415123,-0.0009999275207519531,-0.0009999275207519531,0.0,0.1220703125,-0.1220703125,0.00048828125,-0.0244140625,1.0009765625,2,445618,445608,8,80,0,0,0,8,83,10,1,74268,74268,222804,74268,1,1,5,0,0
2026-05-25T20:35:35.868,374662551,-1.4160000085830688,-0.05299999937415123,-0.0009999275207519531,-0.0009999275207519531,0.0,0.1220703125,-0.1220703125,0.00048828125,-0.0244140625,1.0009765625,2,445624,445614,8,80,0,0,0,8,83,10,1,74269,74269,222807,74269,1,1,5,0,0
2026-05-25T20:35:35.873,374667548,-1.4160000085830688,-0.05299999937415123,-0.0009999275207519531,-0.0009999275207519531,0.0,0.1220703125,-0.1220703125,0.00048828125,-0.0244140625,1.0009765625,2,445630,445620,8,80,0,0,0,8,83,10,1,74270,74270,222810,74270,1,1,5,0,0
2026-05-25T20:35:35.878,374672545,-1.4160000085830688,-0.05299999937415123,-0.0009999275207519531,-0.0009999275207519531,0.0,0.18310546875,-0.1220703125,0.00048828125,-0.0244140625,1.0009765625,2,445636,445626,8,80,0,0,0,8,83,10,1,74271,74271,222813,74271,1,1,5,0,0
2026-05-25T20:35:35.883,374677546,-1.4160000085830688,-0.05299999937415123,-0.0009999275207519531,-0.0009999275207519531,0.0,0.18310546875,-0.1220703125,0.00048828125,-0.0244140625,1.0009765625,2,445642,445632,8,80,0,0,0,8,83,10,1,74272,74272,222816,74272,1,1,5,0,0
2026-05-25T20:35:35.888,374682546,-1.4160000085830688,-0.05299999937415123,-0.0009999275207519531,-0.0009999275207519531,0.0,0.18310546875,-0.1220703125,0.00048828125,-0.0244140625,1.0009765625,2,445648,445638,8,80,0,0,0,8,83,10,1,74273,74273,222819,74273,1,1,5,0,0
2026-05-25T20:35:35.893,374687549,-1.4160000085830688,-0.05299999937415123,-0.0009999275207519531,-0.0009999275207519531,0.0,0.18310546875,-0.1220703125,0.00048828125,-0.0244140625,1.0009765625,2,445654,445644,8,80,0,0,0,8,83,10,1,74274,74274,222822,74274,1,1,5,0,0
2026-05-25T20:35:35.898,374692546,-1.4160000085830688,-0.05299999937415123,-0.0009999275207519531,-0.0009999275207519531,0.0,0.18310546875,-0.1220703125,0.00048828125,-0.0244140625,1.0009765625,2,445660,445650,8,80,0,0,0,8,83,10,1,74275,74275,222825,74275,1,1,5,0,0
2026-05-25T20:35:35.903,374697548,-1.4160000085830688,-0.05299999937415123,-0.0009999275207519531,-0.0009999275207519531,0.0,0.18310546875,-0.1220703125,0.00048828125,-0.0244140625,1.0009765625,2,445666,445656,8,80,0,0,0,8,83,10,1,74276,74276,222828,74276,1,1,5,0,0
2026-05-25T20:35:35.908,374702549,-1.4160000085830688,-0.05299999937415123,-0.0009999275207519531,-0.0009999275207519531,0.0,0.18310546875,-0.1220703125,0.00048828125,-0.0244140625,1.0009765625,2,445672,445662,8,80,0,0,0,8,83,10,1,74277,74277,222831,74277,1,1,5,0,0
2026-05-25T20:35:35.913,374707546,-1.4160000085830688,-0.05299999937415123,-0.0009999275207519531,-0.0009999275207519531,0.0,0.18310546875,-0.1220703125,0.00048828125,-0.0244140625,1.0009765625,2,445678,445668,8,80,0,0,0,8,83,10,1,74278,74278,222834,74278,1,1,5,0,0
2026-05-25T20:35:35.918,374712549,-1.4160000085830688,-0.05299999937415123,-0.0009999275207519531,-0.0009999275207519531,0.0,0.18310546875,-0.06103515625,0.00048828125,-0.0244140625,1.0009765625,2,445684,445674,8,80,0,0,0,8,83,10,1,74279,74279,222837,74279,1,1,5,0,0
2026-05-25T20:35:35.923,374717548,-1.4160000085830688,-0.05299999937415123,0.0,0.0,0.0,0.18310546875,-0.06103515625,0.00048828125,-0.0244140625,1.0009765625,2,445690,445680,8,80,0,0,0,8,83,10,1,74280,74280,222840,74280,1,1,5,0,0
2026-05-25T20:35:35.928,374722546,-1.4160000085830688,-0.05299999937415123,0.0,0.0,0.0,0.18310546875,-0.06103515625,0.00048828125,-0.0244140625,1.0009765625,2,445696,445686,8,80,0,0,0,8,83,10,1,74281,74281,222843,74281,1,1,5,0,0
2026-05-25T20:35:35.933,374727549,-1.4160000085830688,-0.05299999937415123,0.0,0.0,0.0,0.18310546875,-0.06103515625,0.00048828125,-0.0244140625,1.0009765625,2,445702,445692,8,80,0,0,0,8,83,10,1,74282,74282,222846,74282,1,1,5,0,0
2026-05-25T20:35:35.938,374732557,-1.4160000085830688,-0.05299999937415123,0.0,0.0,0.0,0.18310546875,-0.06103515625,0.00048828125,-0.0244140625,1.0009765625,2,445708,445698,8,80,0,0,0,8,83,10,1,74283,74283,222849,74283,1,1,5,0,0
2026-05-25T20:35:35.943,374737546,-1.4160000085830688,-0.05299999937415123,0.0009999275207519531,0.0009999275207519531,0.0,0.18310546875,-0.06103515625,0.00048828125,-0.0244140625,1.0009765625,2,445714,445704,8,80,0,0,0,8,83,10,1,74284,74284,222852,74284,1,1,5,0,0
2026-05-25T20:35:35.948,374742548,-1.4160000085830688,-0.05299999937415123,0.0009999275207519531,0.0009999275207519531,0.0,0.18310546875,-0.06103515625,0.00048828125,-0.0244140625,1.0009765625,2,445720,445710,8,80,0,0,0,8,83,10,1,74285,74285,222855,74285,1,1,5,0,0
2026-05-25T20:35:35.953,374747549,-1.4160000085830688,-0.05299999937415123,0.0009999275207519531,0.0009999275207519531,0.0,0.18310546875,-0.06103515625,0.00048828125,-0.0244140625,1.0009765625,2,445726,445716,8,80,0,0,0,8,83,10,1,74286,74286,222858,74286,1,1,5,0,0
2026-05-25T20:35:35.958,374752546,-1.4160000085830688,-0.05299999937415123,0.0009999275207519531,0.0009999275207519531,0.0,0.18310546875,-0.1220703125,0.00048828125,-0.0244140625,1.0009765625,2,445732,445722,8,80,0,0,0,8,83,10,1,74287,74287,222861,74287,1,1,5,0,0
2026-05-25T20:35:35.963,374757549,-1.4160000085830688,-0.05299999937415123,0.0009999275207519531,0.0009999275207519531,0.0,0.18310546875,-0.1220703125,0.00048828125,-0.0244140625,1.0009765625,2,445738,445728,8,80,0,0,0,8,83,10,1,74288,74288,222864,74288,1,1,5,0,0
2026-05-25T20:35:35.968,374762553,-1.4160000085830688,-0.05299999937415123,0.0009999275207519531,0.0009999275207519531,0.0,0.18310546875,-0.1220703125,0.00048828125,-0.0244140625,1.0009765625,2,445744,445734,8,80,0,0,0,8,83,10,1,74289,74289,222867,74289,1,1,5,0,0
2026-05-25T20:35:35.973,374767551,-1.4160000085830688,-0.05299999937415123,0.0009999275207519531,0.0009999275207519531,0.0,0.18310546875,-0.1220703125,0.00048828125,-0.0244140625,1.0009765625,2,445750,445740,8,80,0,0,0,8,83,10,1,74290,74290,222870,74290,1,1,5,0,0
2026-05-25T20:35:35.978,374772545,-1.4160000085830688,-0.05299999937415123,0.0009999275207519531,0.0009999275207519531,0.0,0.18310546875,-0.1220703125,0.00048828125,-0.0244140625,1.0009765625,2,445756,445746,8,80,0,0,0,8,83,10,1,74291,74291,222873,74291,1,1,5,0,0
2026-05-25T20:35:35.983,374777547,-1.4160000085830688,-0.05299999937415123,0.0009999275207519531,0.0009999275207519531,0.0,0.18310546875,-0.1220703125,0.00048828125,-0.0244140625,1.0009765625,2,445762,445752,8,80,0,0,0,8,83,10,1,74292,74292,222876,74292,1,1,5,0,0
2026-05-25T20:35:35.988,374782546,-1.4160000085830688,-0.05299999937415123,0.0009999275207519531,0.0009999275207519531,0.0,0.18310546875,-0.1220703125,0.00048828125,-0.0244140625,1.0009765625,2,445768,445758,8,80,0,0,0,8,83,10,1,74293,74293,222879,74293,1,1,5,0,0
2026-05-25T20:35:35.993,374787546,-1.4160000085830688,-0.05299999937415123,0.0009999275207519531,0.0009999275207519531,0.0,0.18310546875,-0.1220703125,0.00048828125,-0.0244140625,1.0009765625,2,445774,445764,8,80,0,0,0,8,83,10,1,74294,74294,222882,74294,1,1,5,0,0
2026-05-25T20:35:35.998,374792547,-1.4160000085830688,-0.05299999937415123,0.0009999275207519531,0.0009999275207519531,0.0,0.18310546875,-0.1220703125,0.00048828125,-0.0244140625,1.0009765625,2,445780,445770,8,80,0,0,0,8,83,10,1,74295,74295,222885,74295,1,1,5,0,0
2026-05-25T20:35:36.003,374797548,-1.4160000085830688,-0.05299999937415123,0.0009999275207519531,0.0009999275207519531,0.0,0.18310546875,-0.1220703125,0.00048828125,-0.0244140625,1.0009765625,2,445786,445776,8,80,0,0,0,8,83,10,1,74296,74296,222888,74296,1,1,5,0,0
2026-05-25T20:35:36.008,374802547,-1.4160000085830688,-0.05299999937415123,0.0009999275207519531,0.0009999275207519531,0.0,0.18310546875,-0.1220703125,0.00048828125,-0.0244140625,1.0009765625,2,445792,445782,8,80,0,0,0,8,83,10,1,74297,74297,222891,74297,1,1,5,0,0
2026-05-25T20:35:36.013,374807548,-1.4160000085830688,-0.05299999937415123,0.0009999275207519531,0.0009999275207519531,0.0,0.18310546875,-0.1220703125,0.00048828125,-0.0244140625,1.0009765625,2,445798,445788,8,80,0,0,0,8,83,10,1,74298,74298,222894,74298,1,1,5,0,0
2026-05-25T20:35:36.018,374812550,-1.4160000085830688,-0.05299999937415123,0.0009999275207519531,0.0009999275207519531,0.0,0.18310546875,-0.1220703125,0.00048828125,-0.0244140625,1.0009765625,2,445804,445794,8,80,0,0,0,8,83,10,1,74299,74299,222897,74299,1,1,5,0,0
2026-05-25T20:35:36.023,374817546,-1.4160000085830688,-0.05299999937415123,0.0009999275207519531,0.0009999275207519531,0.0,0.18310546875,-0.1220703125,0.00048828125,-0.0244140625,1.0009765625,2,445810,445800,8,80,0,0,0,8,83,10,1,74300,74300,222900,74300,1,1,5,0,0
2026-05-25T20:35:36.028,374822548,-1.4160000085830688,-0.05299999937415123,0.0009999275207519531,0.0009999275207519531,0.0,0.18310546875,-0.1220703125,0.00048828125,-0.0244140625,1.0009765625,2,445816,445806,8,80,0,0,0,8,83,10,1,74301,74301,222903,74301,1,1,5,0,0
2026-05-25T20:35:36.033,374827549,-1.4160000085830688,-0.05299999937415123,0.0009999275207519531,0.0009999275207519531,0.0,0.18310546875,-0.1220703125,0.00048828125,-0.0244140625,1.0009765625,2,445822,445812,8,80,0,0,0,8,83,10,1,74302,74302,222906,74302,1,1,5,0,0
2026-05-25T20:35:36.038,374832545,-1.4160000085830688,-0.05299999937415123,0.0009999275207519531,0.0009999275207519531,0.0,0.18310546875,-0.06103515625,0.00048828125,-0.0244140625,1.0009765625,2,445828,445818,8,80,0,0,0,8,83,10,1,74303,74303,222909,74303,1,1,5,0,0
2026-05-25T20:35:36.043,374837546,-1.4160000085830688,-0.05299999937415123,0.0009999275207519531,0.0009999275207519531,0.0,0.18310546875,-0.06103515625,0.00048828125,-0.0244140625,1.0009765625,2,445834,445824,8,80,0,0,0,8,83,10,1,74304,74304,222912,74304,1,1,5,0,0
2026-05-25T20:35:36.048,374842546,-1.4160000085830688,-0.05299999937415123,0.0009999275207519531,0.0009999275207519531,0.0,0.18310546875,-0.06103515625,0.00048828125,-0.0244140625,1.0009765625,2,445840,445830,8,80,0,0,0,8,83,10,1,74305,74305,222915,74305,1,1,5,0,0
2026-05-25T20:35:36.053,374847549,-1.4160000085830688,-0.05299999937415123,0.002000093460083008,0.002000093460083008,0.0,0.18310546875,-0.06103515625,0.00048828125,-0.0244140625,1.0009765625,2,445846,445836,8,80,0,0,0,8,83,10,1,74306,74306,222918,74306,1,1,5,0,0
2026-05-25T20:35:36.058,374852546,-1.4160000085830688,-0.05299999937415123,0.002000093460083008,0.002000093460083008,0.0,0.18310546875,-0.06103515625,0.00048828125,-0.0244140625,1.0009765625,2,445852,445842,8,80,0,0,0,8,83,10,1,74307,74307,222921,74307,1,1,5,0,0
2026-05-25T20:35:36.063,374857548,-1.4160000085830688,-0.05299999937415123,0.002000093460083008,0.002000093460083008,0.0,0.18310546875,-0.06103515625,0.00048828125,-0.0244140625,1.0009765625,2,445858,445848,8,80,0,0,0,8,83,10,1,74308,74308,222924,74308,1,1,5,0,0
2026-05-25T20:35:36.069,374862553,-1.4160000085830688,-0.05299999937415123,0.003000020980834961,0.003000020980834961,0.0,0.18310546875,-0.06103515625,0.00048828125,-0.0244140625,1.0009765625,2,445864,445854,8,80,0,0,0,8,83,10,1,74309,74309,222927,74309,1,1,5,0,0
2026-05-25T20:35:36.073,374867548,-1.4160000085830688,-0.05299999937415123,0.003000020980834961,0.003000020980834961,0.0,0.244140625,-0.06103515625,0.00048828125,-0.0244140625,1.0009765625,2,445870,445860,8,80,0,0,0,8,83,10,1,74310,74310,222930,74310,1,1,5,0,0
2026-05-25T20:35:36.078,374872546,-1.4160000085830688,-0.05299999937415123,0.003000020980834961,0.003000020980834961,0.0,0.244140625,-0.06103515625,0.00048828125,-0.0244140625,1.0009765625,2,445876,445866,8,80,0,0,0,8,83,10,1,74311,74311,222933,74311,1,1,5,0,0
2026-05-25T20:35:36.083,374877549,-1.4160000085830688,-0.05299999937415123,0.003000020980834961,0.003000020980834961,0.0,0.244140625,-0.06103515625,0.00048828125,-0.0244140625,1.0009765625,2,445882,445872,8,80,0,0,0,8,83,10,1,74312,74312,222936,74312,1,1,5,0,0
2026-05-25T20:35:36.088,374882548,-1.4160000085830688,-0.05299999937415123,0.003999948501586914,0.003999948501586914,0.0,0.244140625,-0.06103515625,0.00048828125,-0.0244140625,1.0009765625,2,445888,445878,8,80,0,0,0,8,83,10,1,74313,74313,222939,74313,1,1,5,0,0
2026-05-25T20:35:36.093,374887550,-1.4160000085830688,-0.05299999937415123,0.003999948501586914,0.003999948501586914,0.0,0.244140625,-0.06103515625,0.00048828125,-0.0244140625,1.0009765625,2,445894,445884,8,80,0,0,0,8,83,10,1,74314,74314,222942,74314,1,1,5,0,0
2026-05-25T20:35:36.098,374892549,-1.4160000085830688,-0.05299999937415123,0.003999948501586914,0.003999948501586914,0.0,0.244140625,-0.06103515625,0.00048828125,-0.0244140625,1.0009765625,2,445900,445890,8,80,0,0,0,8,83,10,1,74315,74315,222945,74315,1,1,5,0,0
2026-05-25T20:35:36.103,374897547,-1.4160000085830688,-0.05299999937415123,0.003999948501586914,0.003999948501586914,0.0,0.244140625,-0.06103515625,0.00048828125,-0.0244140625,1.0009765625,2,445906,445896,8,80,0,0,0,8,83,10,1,74316,74316,222948,74316,1,1,5,0,0
2026-05-25T20:35:36.108,374902546,-1.4160000085830688,-0.05299999937415123,0.005000114440917969,0.005000114440917969,0.0,0.244140625,-0.06103515625,0.00048828125,-0.0244140625,1.0009765625,2,445912,445902,8,80,0,0,0,8,83,10,1,74317,74317,222951,74317,1,1,5,0,0
2026-05-25T20:35:36.113,374907548,-1.4160000085830688,-0.05299999937415123,0.005000114440917969,0.005000114440917969,0.06103515625,0.18310546875,-0.06103515625,0.00048828125,-0.0244140625,1.0009765625,2,445918,445908,8,80,0,0,0,8,83,10,1,74318,74318,222954,74318,1,1,5,0,0
2026-05-25T20:35:36.118,374912549,-1.4160000085830688,-0.05299999937415123,0.005000114440917969,0.005000114440917969,0.06103515625,0.18310546875,-0.06103515625,0.00048828125,-0.0244140625,1.0009765625,2,445924,445914,8,80,0,0,0,8,83,10,1,74319,74319,222957,74319,1,1,5,0,0
2026-05-25T20:35:36.123,374917549,-1.4160000085830688,-0.05299999937415123,0.006000041961669922,0.006000041961669922,0.06103515625,0.18310546875,-0.06103515625,0.00048828125,-0.0244140625,1.0009765625,2,445930,445920,8,80,0,0,0,8,83,10,1,74320,74320,222960,74320,1,1,5,0,0
2026-05-25T20:35:36.128,374922548,-1.4160000085830688,-0.05299999937415123,0.006000041961669922,0.006000041961669922,0.06103515625,0.18310546875,-0.06103515625,0.00048828125,-0.0244140625,1.0009765625,2,445936,445926,8,80,0,0,0,8,83,10,1,74321,74321,222963,74321,1,1,5,0,0
2026-05-25T20:35:36.133,374927550,-1.4160000085830688,-0.05299999937415123,0.006000041961669922,0.006000041961669922,0.06103515625,0.18310546875,-0.06103515625,0.00048828125,-0.0244140625,1.0009765625,2,445942,445932,8,80,0,0,0,8,83,10,1,74322,74322,222966,74322,1,1,5,0,0
2026-05-25T20:35:36.138,374932546,-1.4160000085830688,-0.05299999937415123,0.006000041961669922,0.006000041961669922,0.06103515625,0.18310546875,-0.06103515625,0.00048828125,-0.0244140625,1.0009765625,2,445948,445938,8,80,0,0,0,8,83,10,1,74323,74323,222969,74323,1,1,5,0,0
2026-05-25T20:35:36.143,374937548,-1.4160000085830688,-0.05299999937415123,0.006999969482421875,0.006999969482421875,0.0,0.18310546875,-0.06103515625,0.00048828125,-0.0244140625,1.0009765625,2,445954,445944,8,80,0,0,0,8,83,10,1,74324,74324,222972,74324,1,1,5,0,0
2026-05-25T20:35:36.148,374942549,-1.4160000085830688,-0.05299999937415123,0.006999969482421875,0.006999969482421875,0.0,0.18310546875,-0.06103515625,0.00048828125,-0.0244140625,1.0009765625,2,445960,445950,8,80,0,0,0,8,83,10,1,74325,74325,222975,74325,1,1,5,0,0
2026-05-25T20:35:36.153,374947549,-1.4160000085830688,-0.05299999937415123,0.006999969482421875,0.006999969482421875,0.0,0.18310546875,-0.1220703125,0.00048828125,-0.0244140625,1.0009765625,2,445966,445956,8,80,0,0,0,8,83,10,1,74326,74326,222978,74326,1,1,5,0,0
2026-05-25T20:35:36.158,374952548,-1.4160000085830688,-0.05299999937415123,0.006999969482421875,0.006999969482421875,0.0,0.18310546875,-0.1220703125,0.00048828125,-0.0244140625,1.0009765625,2,445972,445962,8,80,0,0,0,8,83,10,1,74327,74327,222981,74327,1,1,5,0,0
2026-05-25T20:35:36.163,374957550,-1.4160000085830688,-0.05299999937415123,0.006999969482421875,0.006999969482421875,0.0,0.18310546875,-0.1220703125,0.00048828125,-0.0244140625,1.0009765625,2,445978,445968,8,80,0,0,0,8,83,10,1,74328,74328,222984,74328,1,1,5,0,0
2026-05-25T20:35:36.168,374962550,-1.4160000085830688,-0.05299999937415123,0.006999969482421875,0.006999969482421875,0.0,0.18310546875,-0.1220703125,0.00048828125,-0.0244140625,1.0009765625,2,445984,445974,8,80,0,0,0,8,83,10,1,74329,74329,222987,74329,1,1,5,0,0
2026-05-25T20:35:36.173,374967549,-1.4160000085830688,-0.05299999937415123,0.006999969482421875,0.006999969482421875,0.0,0.18310546875,-0.1220703125,0.00048828125,-0.0244140625,1.0009765625,2,445990,445980,8,80,0,0,0,8,83,10,1,74330,74330,222990,74330,1,1,5,0,0
2026-05-25T20:35:36.178,374972548,-1.4160000085830688,-0.05299999937415123,0.006999969482421875,0.006999969482421875,0.0,0.18310546875,-0.1220703125,0.00048828125,-0.0244140625,1.0009765625,2,445996,445986,8,80,0,0,0,8,83,10,1,74331,74331,222993,74331,1,1,5,0,0
2026-05-25T20:35:36.183,374977548,-1.4160000085830688,-0.05299999937415123,0.006999969482421875,0.006999969482421875,0.0,0.18310546875,-0.1220703125,0.00048828125,-0.0244140625,1.0009765625,2,446002,445992,8,80,0,0,0,8,83,10,1,74332,74332,222996,74332,1,1,5,0,0
2026-05-25T20:35:36.188,374982549,-1.4160000085830688,-0.05299999937415123,0.006999969482421875,0.006999969482421875,0.0,0.18310546875,-0.1220703125,0.00048828125,-0.0244140625,1.0009765625,2,446008,445998,8,80,0,0,0,8,83,10,1,74333,74333,222999,74333,1,1,5,0,0
2026-05-25T20:35:36.193,374987550,-1.4160000085830688,-0.05299999937415123,0.006999969482421875,0.006999969482421875,0.0,0.18310546875,-0.1220703125,0.00048828125,-0.0244140625,1.0009765625,2,446014,446004,8,80,0,0,0,8,83,10,1,74334,74334,223002,74334,1,1,5,0,0
2026-05-25T20:35:36.198,374992546,-1.4160000085830688,-0.05299999937415123,0.006999969482421875,0.006999969482421875,0.0,0.18310546875,-0.1220703125,0.00048828125,-0.0244140625,1.0009765625,2,446020,446010,8,80,0,0,0,8,83,10,1,74335,74335,223005,74335,1,1,5,0,0
2026-05-25T20:35:36.203,374997549,-1.4160000085830688,-0.05299999937415123,0.006999969482421875,0.006999969482421875,0.0,0.18310546875,-0.1220703125,0.00048828125,-0.0244140625,1.0009765625,2,446026,446016,8,80,0,0,0,8,83,10,1,74336,74336,223008,74336,1,1,5,0,0
2026-05-25T20:35:36.208,375002544,-1.4160000085830688,-0.05299999937415123,0.006999969482421875,0.006999969482421875,0.0,0.18310546875,-0.1220703125,0.00048828125,-0.0244140625,1.0009765625,2,446032,446022,8,80,0,0,0,8,83,10,1,74337,74337,223011,74337,1,1,5,0,0
2026-05-25T20:35:36.213,375007547,-1.4160000085830688,-0.05299999937415123,0.006999969482421875,0.006999969482421875,0.0,0.18310546875,-0.1220703125,0.00048828125,-0.0244140625,1.0009765625,2,446038,446028,8,80,0,0,0,8,83,10,1,74338,74338,223014,74338,1,1,5,0,0
2026-05-25T20:35:36.218,375012547,-1.4160000085830688,-0.05299999937415123,0.006999969482421875,0.006999969482421875,0.0,0.18310546875,-0.1220703125,0.00048828125,-0.0244140625,1.0009765625,2,446044,446034,8,80,0,0,0,8,83,10,1,74339,74339,223017,74339,1,1,5,0,0
2026-05-25T20:35:36.223,375017554,-1.4160000085830688,-0.05299999937415123,0.006999969482421875,0.006999969482421875,0.0,0.18310546875,-0.1220703125,0.00048828125,-0.0244140625,1.0009765625,2,446050,446040,8,80,0,0,0,8,83,10,1,74340,74340,223020,74340,1,1,5,0,0
2026-05-25T20:35:36.228,375022547,-1.4160000085830688,-0.05299999937415123,0.006999969482421875,0.006999969482421875,0.0,0.18310546875,-0.1220703125,0.00048828125,-0.0244140625,1.0009765625,2,446056,446046,8,80,0,0,0,8,83,10,1,74341,74341,223023,74341,1,1,5,0,0
2026-05-25T20:35:36.233,375027546,-1.4160000085830688,-0.05299999937415123,0.006000041961669922,0.006000041961669922,0.0,0.18310546875,-0.1220703125,0.00048828125,-0.0244140625,1.0009765625,2,446062,446052,8,80,0,0,0,8,83,10,1,74342,74342,223026,74342,1,1,5,0,0
2026-05-25T20:35:36.238,375032544,-1.4160000085830688,-0.05299999937415123,0.006000041961669922,0.006000041961669922,0.0,0.18310546875,-0.1220703125,0.00048828125,-0.0244140625,1.0009765625,2,446068,446058,8,80,0,0,0,8,83,10,1,74343,74343,223029,74343,1,1,5,0,0
2026-05-25T20:35:36.243,375037547,-1.4160000085830688,-0.05299999937415123,0.006000041961669922,0.006000041961669922,0.0,0.18310546875,-0.1220703125,0.00048828125,-0.0244140625,1.0009765625,2,446074,446064,8,80,0,0,0,8,83,10,1,74344,74344,223032,74344,1,1,5,0,0
2026-05-25T20:35:36.248,375042547,-1.4160000085830688,-0.05299999937415123,0.006000041961669922,0.006000041961669922,0.0,0.18310546875,-0.1220703125,0.00048828125,-0.0244140625,1.0009765625,2,446080,446070,8,80,0,0,0,8,83,10,1,74345,74345,223035,74345,1,1,5,0,0
2026-05-25T20:35:36.253,375047548,-1.4160000085830688,-0.05299999937415123,0.006000041961669922,0.006000041961669922,0.0,0.18310546875,-0.1220703125,0.00048828125,-0.0244140625,1.0009765625,2,446086,446076,8,80,0,0,0,8,83,10,1,74346,74346,223038,74346,1,1,5,0,0
2026-05-25T20:35:36.258,375052547,-1.4160000085830688,-0.05299999937415123,0.006000041961669922,0.006000041961669922,0.0,0.18310546875,-0.1220703125,0.00048828125,-0.0244140625,1.0009765625,2,446092,446082,8,80,0,0,0,8,83,10,1,74347,74347,223041,74347,1,1,5,0,0
2026-05-25T20:35:36.263,375057546,-1.4160000085830688,-0.05299999937415123,0.006000041961669922,0.006000041961669922,0.0,0.18310546875,-0.1220703125,0.00048828125,-0.0244140625,1.0009765625,2,446098,446088,8,80,0,0,0,8,83,10,1,74348,74348,223044,74348,1,1,5,0,0
2026-05-25T20:35:36.268,375062552,-1.4160000085830688,-0.05299999937415123,0.006000041961669922,0.006000041961669922,0.0,0.18310546875,-0.1220703125,0.00048828125,-0.0244140625,1.0009765625,2,446104,446094,8,80,0,0,0,8,83,10,1,74349,74349,223047,74349,1,1,5,0,0
2026-05-25T20:35:36.273,375067547,-1.4160000085830688,-0.05299999937415123,0.006000041961669922,0.006000041961669922,0.0,0.18310546875,-0.1220703125,0.00048828125,-0.0244140625,1.0009765625,2,446110,446100,8,80,0,0,0,8,83,10,1,74350,74350,223050,74350,1,1,5,0,0
2026-05-25T20:35:36.278,375072545,-1.4160000085830688,-0.05299999937415123,0.006000041961669922,0.006000041961669922,0.0,0.18310546875,-0.1220703125,0.00048828125,-0.0244140625,1.0009765625,2,446116,446106,8,80,0,0,0,8,83,10,1,74351,74351,223053,74351,1,1,5,0,0
2026-05-25T20:35:36.283,375077546,-1.4160000085830688,-0.05299999937415123,0.006000041961669922,0.006000041961669922,0.0,0.18310546875,-0.1220703125,0.00048828125,-0.0244140625,1.0009765625,2,446122,446112,8,80,0,0,0,8,83,10,1,74352,74352,223056,74352,1,1,5,0,0
2026-05-25T20:35:36.288,375082547,-1.4160000085830688,-0.05299999937415123,0.006000041961669922,0.006000041961669922,0.0,0.18310546875,-0.1220703125,0.00048828125,-0.0244140625,1.0009765625,2,446128,446118,8,80,0,0,0,8,83,10,1,74353,74353,223059,74353,1,1,5,0,0
2026-05-25T20:35:36.293,375087548,-1.4160000085830688,-0.05299999937415123,0.006000041961669922,0.006000041961669922,0.0,0.18310546875,-0.1220703125,0.00048828125,-0.0244140625,1.0009765625,2,446134,446124,8,80,0,0,0,8,83,10,1,74354,74354,223062,74354,1,1,5,0,0
2026-05-25T20:35:36.298,375092546,-1.4160000085830688,-0.05299999937415123,0.006000041961669922,0.006000041961669922,0.0,0.18310546875,-0.1220703125,0.00048828125,-0.0244140625,1.0009765625,2,446140,446130,8,80,0,0,0,8,83,10,1,74355,74355,223065,74355,1,1,5,0,0
2026-05-25T20:35:36.303,375097547,-1.4160000085830688,-0.05299999937415123,0.006000041961669922,0.006000041961669922,0.0,0.18310546875,-0.1220703125,0.00048828125,-0.0244140625,1.0009765625,2,446146,446136,8,80,0,0,0,8,83,10,1,74356,74356,223068,74356,1,1,5,0,0
2026-05-25T20:35:36.308,375102546,-1.4160000085830688,-0.05299999937415123,0.006000041961669922,0.006000041961669922,0.0,0.18310546875,-0.1220703125,0.00048828125,-0.0244140625,1.0009765625,2,446152,446142,8,80,0,0,0,8,83,10,1,74357,74357,223071,74357,1,1,5,0,0
2026-05-25T20:35:36.313,375107548,-1.4160000085830688,-0.05299999937415123,0.006000041961669922,0.006000041961669922,0.0,0.244140625,-0.1220703125,0.00048828125,-0.0244140625,1.0009765625,2,446158,446148,8,80,0,0,0,8,83,10,1,74358,74358,223074,74358,1,1,5,0,0
2026-05-25T20:35:36.318,375112547,-1.4160000085830688,-0.05299999937415123,0.006000041961669922,0.006000041961669922,0.0,0.244140625,-0.1220703125,0.00048828125,-0.0244140625,1.0009765625,2,446164,446154,8,80,0,0,0,8,83,10,1,74359,74359,223077,74359,1,1,5,0,0
2026-05-25T20:35:36.323,375117557,-1.4160000085830688,-0.05299999937415123,0.006000041961669922,0.006000041961669922,0.0,0.244140625,-0.1220703125,0.00048828125,-0.0244140625,1.0009765625,2,446170,446160,8,80,0,0,0,8,83,10,1,74360,74360,223080,74360,1,1,5,0,0
2026-05-25T20:35:36.328,375122548,-1.4160000085830688,-0.05299999937415123,0.006000041961669922,0.006000041961669922,0.0,0.244140625,-0.1220703125,0.00048828125,-0.0244140625,1.0009765625,2,446176,446166,8,80,0,0,0,8,83,10,1,74361,74361,223083,74361,1,1,5,0,0
2026-05-25T20:35:36.333,375127550,-1.4160000085830688,-0.05299999937415123,0.006000041961669922,0.006000041961669922,0.0,0.244140625,-0.1220703125,0.00048828125,-0.0244140625,1.0009765625,2,446182,446172,8,80,0,0,0,8,83,10,1,74362,74362,223086,74362,1,1,5,0,0
2026-05-25T20:35:36.338,375132545,-1.4160000085830688,-0.05299999937415123,0.006000041961669922,0.006000041961669922,0.0,0.244140625,-0.1220703125,0.00048828125,-0.0244140625,1.0009765625,2,446188,446178,8,80,0,0,0,8,83,10,1,74363,74363,223089,74363,1,1,5,0,0
2026-05-25T20:35:36.343,375137547,-1.4160000085830688,-0.05299999937415123,0.006000041961669922,0.006000041961669922,0.0,0.244140625,-0.1220703125,0.00048828125,-0.0244140625,1.0009765625,2,446194,446184,8,80,0,0,0,8,83,10,1,74364,74364,223092,74364,1,1,5,0,0
2026-05-25T20:35:36.348,375142546,-1.4160000085830688,-0.05299999937415123,0.006000041961669922,0.006000041961669922,0.0,0.244140625,-0.1220703125,0.00048828125,-0.0244140625,1.0009765625,2,446200,446190,8,80,0,0,0,8,83,10,1,74365,74365,223095,74365,1,1,5,0,0
2026-05-25T20:35:36.353,375147546,-1.4160000085830688,-0.05299999937415123,0.006000041961669922,0.006000041961669922,0.0,0.18310546875,-0.1220703125,0.00048828125,-0.0244140625,1.0009765625,2,446206,446196,8,80,0,0,0,8,83,10,1,74366,74366,223098,74366,1,1,5,0,0
2026-05-25T20:35:36.358,375152547,-1.4160000085830688,-0.05299999937415123,0.006000041961669922,0.006000041961669922,0.0,0.18310546875,-0.1220703125,0.00048828125,-0.0244140625,1.0009765625,2,446212,446202,8,80,0,0,0,8,83,10,1,74367,74367,223101,74367,1,1,5,0,0
2026-05-25T20:35:36.363,375157548,-1.4160000085830688,-0.05299999937415123,0.006000041961669922,0.006000041961669922,0.0,0.18310546875,-0.1220703125,0.00048828125,-0.0244140625,1.0009765625,2,446218,446208,8,80,0,0,0,8,83,10,1,74368,74368,223104,74368,1,1,5,0,0
2026-05-25T20:35:36.368,375162549,-1.4160000085830688,-0.05299999937415123,0.006000041961669922,0.006000041961669922,0.0,0.18310546875,-0.1220703125,0.00048828125,-0.0244140625,1.0009765625,2,446224,446214,8,80,0,0,0,8,83,10,1,74369,74369,223107,74369,1,1,5,0,0
2026-05-25T20:35:36.373,375167548,-1.4160000085830688,-0.05299999937415123,0.005000114440917969,0.005000114440917969,0.0,0.18310546875,-0.1220703125,0.00048828125,-0.0244140625,1.0009765625,2,446230,446220,8,80,0,0,0,8,83,10,1,74370,74370,223110,74370,1,1,5,0,0
2026-05-25T20:35:36.378,375172546,-1.4160000085830688,-0.05299999937415123,0.005000114440917969,0.005000114440917969,0.0,0.18310546875,-0.1220703125,0.00048828125,-0.0244140625,1.0009765625,2,446236,446226,8,80,0,0,0,8,83,10,1,74371,74371,223113,74371,1,1,5,0,0
2026-05-25T20:35:36.383,375177546,-1.4160000085830688,-0.05299999937415123,0.005000114440917969,0.005000114440917969,0.0,0.18310546875,-0.1220703125,0.00048828125,-0.0244140625,1.0009765625,2,446242,446232,8,80,0,0,0,8,83,10,1,74372,74372,223116,74372,1,1,5,0,0
2026-05-25T20:35:36.388,375182548,-1.4160000085830688,-0.05299999937415123,0.005000114440917969,0.005000114440917969,0.0,0.18310546875,-0.1220703125,0.00048828125,-0.0244140625,1.0009765625,2,446248,446238,8,80,0,0,0,8,83,10,1,74373,74373,223119,74373,1,1,5,0,0
2026-05-25T20:35:36.393,375187549,-1.4160000085830688,-0.05299999937415123,0.005000114440917969,0.005000114440917969,0.0,0.18310546875,-0.1220703125,0.00048828125,-0.0244140625,1.0009765625,2,446254,446244,8,80,0,0,0,8,83,10,1,74374,74374,223122,74374,1,1,5,0,0
2026-05-25T20:35:36.398,375192545,-1.4160000085830688,-0.05299999937415123,0.005000114440917969,0.005000114440917969,0.0,0.18310546875,-0.1220703125,0.00048828125,-0.0244140625,1.0009765625,2,446260,446250,8,80,0,0,0,8,83,10,1,74375,74375,223125,74375,1,1,5,0,0
2026-05-25T20:35:36.403,375197546,-1.4160000085830688,-0.05299999937415123,0.005000114440917969,0.005000114440917969,0.0,0.18310546875,-0.1220703125,0.00048828125,-0.0244140625,1.0009765625,2,446266,446256,8,80,0,0,0,8,83,10,1,74376,74376,223128,74376,1,1,5,0,0
2026-05-25T20:35:36.408,375202546,-1.4160000085830688,-0.05299999937415123,0.005000114440917969,0.005000114440917969,0.0,0.18310546875,-0.1220703125,0.00048828125,-0.0244140625,1.0009765625,2,446272,446262,8,80,0,0,0,8,83,10,1,74377,74377,223131,74377,1,1,5,0,0
2026-05-25T20:35:36.413,375207549,-1.4160000085830688,-0.05299999937415123,0.005000114440917969,0.005000114440917969,0.0,0.18310546875,-0.1220703125,0.00048828125,-0.0244140625,1.0009765625,2,446278,446268,8,80,0,0,0,8,83,10,1,74378,74378,223134,74378,1,1,5,0,0
2026-05-25T20:35:36.418,375212550,-1.4160000085830688,-0.05299999937415123,0.005000114440917969,0.005000114440917969,0.0,0.18310546875,-0.1220703125,0.00048828125,-0.0244140625,1.0009765625,2,446284,446274,8,80,0,0,0,8,83,10,1,74379,74379,223137,74379,1,1,5,0,0
2026-05-25T20:35:36.423,375217548,-1.4160000085830688,-0.05299999937415123,0.005000114440917969,0.005000114440917969,0.0,0.18310546875,-0.1220703125,0.00048828125,-0.0244140625,1.0009765625,2,446290,446280,8,80,0,0,0,8,83,10,1,74380,74380,223140,74380,1,1,5,0,0
2026-05-25T20:35:36.428,375222549,-1.4160000085830688,-0.05299999937415123,0.005000114440917969,0.005000114440917969,0.0,0.18310546875,-0.1220703125,0.00048828125,-0.0244140625,1.0009765625,2,446296,446286,8,80,0,0,0,8,83,10,1,74381,74381,223143,74381,1,1,5,0,0
2026-05-25T20:35:36.433,375227548,-1.4160000085830688,-0.05299999937415123,0.005000114440917969,0.005000114440917969,0.0,0.18310546875,-0.1220703125,0.00048828125,-0.0244140625,1.0009765625,2,446302,446292,8,80,0,0,0,8,83,10,1,74382,74382,223146,74382,1,1,5,0,0
2026-05-25T20:35:36.438,375232546,-1.4160000085830688,-0.05299999937415123,0.005000114440917969,0.005000114440917969,0.0,0.18310546875,-0.1220703125,0.00048828125,-0.0244140625,1.0009765625,2,446308,446298,8,80,0,0,0,8,83,10,1,74383,74383,223149,74383,1,1,5,0,0
2026-05-25T20:35:36.443,375237549,-1.4160000085830688,-0.05299999937415123,0.005000114440917969,0.005000114440917969,0.0,0.18310546875,-0.1220703125,0.00048828125,-0.0244140625,1.0009765625,2,446314,446304,8,80,0,0,0,8,83,10,1,74384,74384,223152,74384,1,1,5,0,0
2026-05-25T20:35:36.448,375242548,-1.4160000085830688,-0.05299999937415123,0.005000114440917969,0.005000114440917969,0.0,0.18310546875,-0.1220703125,0.00048828125,-0.0244140625,1.0009765625,2,446320,446310,8,80,0,0,0,8,83,10,1,74385,74385,223155,74385,1,1,5,0,0
2026-05-25T20:35:36.453,375247550,-1.4160000085830688,-0.05299999937415123,0.005000114440917969,0.005000114440917969,0.0,0.18310546875,-0.1220703125,0.00048828125,-0.0244140625,1.0009765625,2,446326,446316,8,80,0,0,0,8,83,10,1,74386,74386,223158,74386,1,1,5,0,0
2026-05-25T20:35:36.458,375252549,-1.4160000085830688,-0.05299999937415123,0.005000114440917969,0.005000114440917969,0.0,0.18310546875,-0.1220703125,0.00048828125,-0.0244140625,1.0009765625,2,446332,446322,8,80,0,0,0,8,83,10,1,74387,74387,223161,74387,1,1,5,0,0
2026-05-25T20:35:36.463,375257545,-1.4149999618530273,-0.05299999937415123,0.005000114440917969,0.005000114440917969,0.0,0.18310546875,-0.1220703125,0.00048828125,-0.0244140625,1.0009765625,2,446338,446328,8,80,0,0,0,8,83,10,1,74388,74388,223164,74388,1,1,5,0,0
2026-05-25T20:35:36.468,375262549,-1.4149999618530273,-0.05299999937415123,0.005000114440917969,0.005000114440917969,0.0,0.18310546875,-0.1220703125,0.00048828125,-0.0244140625,1.0009765625,2,446344,446334,8,80,0,0,0,8,83,10,1,74389,74389,223167,74389,1,1,5,0,0
2026-05-25T20:35:36.473,375267546,-1.4149999618530273,-0.05299999937415123,0.005000114440917969,0.005000114440917969,0.0,0.18310546875,-0.1220703125,0.00048828125,-0.0244140625,1.0009765625,2,446350,446340,8,80,0,0,0,8,83,10,1,74390,74390,223170,74390,1,1,5,0,0
2026-05-25T20:35:36.478,375272545,-1.4149999618530273,-0.05299999937415123,0.005000114440917969,0.005000114440917969,0.0,0.18310546875,-0.1220703125,0.00048828125,-0.0244140625,1.0009765625,2,446356,446346,8,80,0,0,0,8,83,10,1,74391,74391,223173,74391,1,1,5,0,0
2026-05-25T20:35:36.483,375277546,-1.4149999618530273,-0.05299999937415123,0.005000114440917969,0.005000114440917969,0.0,0.18310546875,-0.1220703125,0.00048828125,-0.0244140625,1.0009765625,2,446362,446352,8,80,0,0,0,8,83,10,1,74392,74392,223176,74392,1,1,5,0,0
2026-05-25T20:35:36.488,375282546,-1.4149999618530273,-0.05299999937415123,0.005000114440917969,0.005000114440917969,0.0,0.18310546875,-0.1220703125,0.00048828125,-0.0244140625,1.0009765625,2,446368,446358,8,80,0,0,0,8,83,10,1,74393,74393,223179,74393,1,1,5,0,0
2026-05-25T20:35:36.493,375287549,-1.4149999618530273,-0.05299999937415123,0.005000114440917969,0.005000114440917969,0.0,0.18310546875,-0.1220703125,0.00048828125,-0.0244140625,1.0009765625,2,446374,446364,8,80,0,0,0,8,83,10,1,74394,74394,223182,74394,1,1,5,0,0
2026-05-25T20:35:36.498,375292547,-1.4149999618530273,-0.05299999937415123,0.005000114440917969,0.005000114440917969,0.0,0.18310546875,-0.1220703125,0.00048828125,-0.0244140625,1.0009765625,2,446380,446370,8,80,0,0,0,8,83,10,1,74395,74395,223185,74395,1,1,5,0,0
2026-05-25T20:35:36.503,375297546,-1.4149999618530273,-0.05299999937415123,0.005000114440917969,0.005000114440917969,0.0,0.18310546875,-0.1220703125,0.00048828125,-0.0244140625,1.0009765625,2,446386,446376,8,80,0,0,0,8,83,10,1,74396,74396,223188,74396,1,1,5,0,0
2026-05-25T20:35:36.508,375302549,-1.4149999618530273,-0.05299999937415123,0.003999948501586914,0.003999948501586914,0.0,0.18310546875,-0.1220703125,0.00048828125,-0.0244140625,1.0009765625,2,446392,446382,8,80,0,0,0,8,83,10,1,74397,74397,223191,74397,1,1,5,0,0
2026-05-25T20:35:36.513,375307548,-1.4149999618530273,-0.05299999937415123,0.005000114440917969,0.005000114440917969,0.0,0.18310546875,-0.06103515625,0.00048828125,-0.0244140625,1.0009765625,2,446398,446388,8,80,0,0,0,8,83,10,1,74398,74398,223194,74398,1,1,5,0,0
2026-05-25T20:35:36.518,375312550,-1.4149999618530273,-0.05299999937415123,0.005000114440917969,0.005000114440917969,0.0,0.18310546875,-0.06103515625,0.00048828125,-0.0244140625,1.0009765625,2,446404,446394,8,80,0,0,0,8,83,10,1,74399,74399,223197,74399,1,1,5,0,0
2026-05-25T20:35:36.523,375317549,-1.4149999618530273,-0.05299999937415123,0.005000114440917969,0.005000114440917969,0.0,0.18310546875,-0.06103515625,0.00048828125,-0.0244140625,1.0009765625,2,446410,446400,8,80,0,0,0,8,83,10,1,74400,74400,223200,74400,1,1,5,0,0
2026-05-25T20:35:36.528,375322547,-1.4149999618530273,-0.05299999937415123,0.005000114440917969,0.005000114440917969,0.0,0.18310546875,-0.06103515625,0.00048828125,-0.0244140625,1.0009765625,2,446416,446406,8,80,0,0,0,8,83,10,1,74401,74401,223203,74401,1,1,5,0,0
2026-05-25T20:35:36.533,375327548,-1.4149999618530273,-0.05299999937415123,0.006000041961669922,0.006000041961669922,0.0,0.18310546875,-0.06103515625,0.00048828125,-0.0244140625,1.0009765625,2,446422,446412,8,80,0,0,0,8,83,10,1,74402,74402,223206,74402,1,1,5,0,0
2026-05-25T20:35:36.538,375332546,-1.4149999618530273,-0.05299999937415123,0.006000041961669922,0.006000041961669922,0.0,0.18310546875,-0.06103515625,0.00048828125,-0.0244140625,1.0009765625,2,446428,446418,8,80,0,0,0,8,83,10,1,74403,74403,223209,74403,1,1,5,0,0
2026-05-25T20:35:36.543,375337546,-1.4149999618530273,-0.05299999937415123,0.006000041961669922,0.006000041961669922,0.0,0.18310546875,-0.06103515625,0.00048828125,-0.0244140625,1.0009765625,2,446434,446424,8,80,0,0,0,8,83,10,1,74404,74404,223212,74404,1,1,5,0,0
2026-05-25T20:35:36.548,375342548,-1.4149999618530273,-0.05299999937415123,0.006000041961669922,0.006000041961669922,0.0,0.18310546875,-0.06103515625,0.00048828125,-0.0244140625,1.0009765625,2,446440,446430,8,80,0,0,0,8,83,10,1,74405,74405,223215,74405,1,1,5,0,0
2026-05-25T20:35:36.553,375347549,-1.4149999618530273,-0.05299999937415123,0.006999969482421875,0.006999969482421875,0.0,0.18310546875,-0.1220703125,0.00048828125,-0.0244140625,1.0009765625,2,446446,446436,8,80,0,0,0,8,83,10,1,74406,74406,223218,74406,1,1,5,0,0
2026-05-25T20:35:36.558,375352547,-1.4149999618530273,-0.05299999937415123,0.006999969482421875,0.006999969482421875,0.0,0.18310546875,-0.1220703125,0.00048828125,-0.0244140625,1.0009765625,2,446452,446442,8,80,0,0,0,8,83,10,1,74407,74407,223221,74407,1,1,5,0,0
2026-05-25T20:35:36.563,375357548,-1.4149999618530273,-0.05299999937415123,0.006999969482421875,0.006999969482421875,0.0,0.18310546875,-0.1220703125,0.00048828125,-0.0244140625,1.0009765625,2,446458,446448,8,80,0,0,0,8,83,10,1,74408,74408,223224,74408,1,1,5,0,0
2026-05-25T20:35:36.568,375362552,-1.4149999618530273,-0.05299999937415123,0.006999969482421875,0.006999969482421875,0.0,0.18310546875,-0.1220703125,0.00048828125,-0.0244140625,1.0009765625,2,446464,446454,8,80,0,0,0,8,83,10,1,74409,74409,223227,74409,1,1,5,0,0
2026-05-25T20:35:36.573,375367550,-1.4149999618530273,-0.05299999937415123,0.006000041961669922,0.006000041961669922,0.0,0.18310546875,-0.1220703125,0.00048828125,-0.0244140625,1.0009765625,2,446470,446460,8,80,0,0,0,8,83,10,1,74410,74410,223230,74410,1,1,5,0,0
2026-05-25T20:35:36.578,375372548,-1.4149999618530273,-0.05299999937415123,0.006000041961669922,0.006000041961669922,0.0,0.18310546875,-0.1220703125,0.00048828125,-0.0244140625,1.0009765625,2,446476,446466,8,80,0,0,0,8,83,10,1,74411,74411,223233,74411,1,1,5,0,0
2026-05-25T20:35:36.583,375377549,-1.4149999618530273,-0.05299999937415123,0.006000041961669922,0.006000041961669922,0.0,0.18310546875,-0.1220703125,0.00048828125,-0.0244140625,1.0009765625,2,446482,446472,8,80,0,0,0,8,83,10,1,74412,74412,223236,74412,1,1,5,0,0
2026-05-25T20:35:36.588,375382550,-1.4149999618530273,-0.05299999937415123,0.006000041961669922,0.006000041961669922,0.0,0.18310546875,-0.1220703125,0.00048828125,-0.0244140625,1.0009765625,2,446488,446478,8,80,0,0,0,8,83,10,1,74413,74413,223239,74413,1,1,5,0,0
2026-05-25T20:35:36.593,375387546,-1.4149999618530273,-0.05299999937415123,0.006000041961669922,0.006000041961669922,0.0,0.1220703125,-0.1220703125,0.00048828125,-0.0244140625,1.0009765625,2,446494,446484,8,80,0,0,0,8,83,10,1,74414,74414,223242,74414,1,1,5,0,0
2026-05-25T20:35:36.598,375392547,-1.4149999618530273,-0.05299999937415123,0.006000041961669922,0.006000041961669922,0.0,0.1220703125,-0.1220703125,0.00048828125,-0.0244140625,1.0009765625,2,446500,446490,8,80,0,0,0,8,83,10,1,74415,74415,223245,74415,1,1,5,0,0
2026-05-25T20:35:36.603,375397548,-1.4149999618530273,-0.05299999937415123,0.006000041961669922,0.006000041961669922,0.0,0.1220703125,-0.1220703125,0.00048828125,-0.0244140625,1.0009765625,2,446506,446496,8,80,0,0,0,8,83,10,1,74416,74416,223248,74416,1,1,5,0,0
2026-05-25T20:35:36.608,375402557,-1.4149999618530273,-0.05299999937415123,0.006000041961669922,0.006000041961669922,0.0,0.1220703125,-0.1220703125,0.00048828125,-0.0244140625,1.0009765625,2,446512,446502,8,80,0,0,0,8,83,10,1,74417,74417,223251,74417,1,1,5,0,0
2026-05-25T20:35:36.613,375407549,-1.4149999618530273,-0.05299999937415123,0.006000041961669922,0.006000041961669922,0.0,0.1220703125,-0.1220703125,0.00048828125,-0.0244140625,1.0009765625,2,446518,446508,8,80,0,0,0,8,83,10,1,74418,74418,223254,74418,1,1,5,0,0
2026-05-25T20:35:36.618,375412552,-1.4149999618530273,-0.05299999937415123,0.006000041961669922,0.006000041961669922,0.0,0.1220703125,-0.1220703125,0.00048828125,-0.0244140625,1.0009765625,2,446524,446514,8,80,0,0,0,8,83,10,1,74419,74419,223257,74419,1,1,5,0,0
2026-05-25T20:35:36.623,375417546,-1.4149999618530273,-0.05299999937415123,0.006000041961669922,0.006000041961669922,0.0,0.1220703125,-0.1220703125,0.00048828125,-0.0244140625,1.0009765625,2,446530,446520,8,80,0,0,0,8,83,10,1,74420,74420,223260,74420,1,1,5,0,0
2026-05-25T20:35:36.628,375422548,-1.4149999618530273,-0.05299999937415123,0.006000041961669922,0.006000041961669922,0.0,0.1220703125,-0.1220703125,0.00048828125,-0.0244140625,1.0009765625,2,446536,446526,8,80,0,0,0,8,83,10,1,74421,74421,223263,74421,1,1,5,0,0
2026-05-25T20:35:36.633,375427549,-1.4149999618530273,-0.05299999937415123,0.006000041961669922,0.006000041961669922,0.0,0.18310546875,-0.1220703125,0.00048828125,-0.0244140625,1.0009765625,2,446542,446532,8,80,0,0,0,8,83,10,1,74422,74422,223266,74422,1,1,5,0,0
2026-05-25T20:35:36.638,375432546,-1.4149999618530273,-0.05299999937415123,0.006000041961669922,0.006000041961669922,0.0,0.18310546875,-0.1220703125,0.00048828125,-0.0244140625,1.0009765625,2,446548,446538,8,80,0,0,0,8,83,10,1,74423,74423,223269,74423,1,1,5,0,0
2026-05-25T20:35:36.643,375437549,-1.4149999618530273,-0.05299999937415123,0.006000041961669922,0.006000041961669922,0.0,0.18310546875,-0.1220703125,0.00048828125,-0.0244140625,1.0009765625,2,446554,446544,8,80,0,0,0,8,83,10,1,74424,74424,223272,74424,1,1,5,0,0
2026-05-25T20:35:36.648,375442549,-1.4149999618530273,-0.05299999937415123,0.006000041961669922,0.006000041961669922,0.0,0.18310546875,-0.1220703125,0.00048828125,-0.0244140625,1.0009765625,2,446560,446550,8,80,0,0,0,8,83,10,1,74425,74425,223275,74425,1,1,5,0,0
2026-05-25T20:35:36.653,375447550,-1.4149999618530273,-0.05299999937415123,0.006000041961669922,0.006000041961669922,0.0,0.18310546875,-0.1220703125,0.00048828125,-0.0244140625,1.0009765625,2,446566,446556,8,80,0,0,0,8,83,10,1,74426,74426,223278,74426,1,1,5,0,0
2026-05-25T20:35:36.658,375452546,-1.4149999618530273,-0.05299999937415123,0.006000041961669922,0.006000041961669922,0.0,0.18310546875,-0.1220703125,0.00048828125,-0.0244140625,1.0009765625,2,446572,446562,8,80,0,0,0,8,83,10,1,74427,74427,223281,74427,1,1,5,0,0
2026-05-25T20:35:36.663,375457548,-1.4149999618530273,-0.05299999937415123,0.006000041961669922,0.006000041961669922,0.0,0.18310546875,-0.1220703125,0.00048828125,-0.0244140625,1.0009765625,2,446578,446568,8,80,0,0,0,8,83,10,1,74428,74428,223284,74428,1,1,5,0,0
2026-05-25T20:35:36.668,375462553,-1.4149999618530273,-0.05299999937415123,0.006000041961669922,0.006000041961669922,0.0,0.18310546875,-0.1220703125,0.00048828125,-0.0244140625,1.0009765625,2,446584,446574,8,80,0,0,0,8,83,10,1,74429,74429,223287,74429,1,1,5,0,0
2026-05-25T20:35:36.673,375467549,-1.4149999618530273,-0.05299999937415123,0.006000041961669922,0.006000041961669922,0.0,0.18310546875,-0.1220703125,0.00048828125,-0.0244140625,1.0009765625,2,446590,446580,8,80,0,0,0,8,83,10,1,74430,74430,223290,74430,1,1,5,0,0
2026-05-25T20:35:36.678,375472548,-1.4149999618530273,-0.05299999937415123,0.006000041961669922,0.006000041961669922,0.0,0.18310546875,-0.1220703125,0.00048828125,-0.0244140625,1.0009765625,2,446596,446586,8,80,0,0,0,8,83,10,1,74431,74431,223293,74431,1,1,5,0,0
2026-05-25T20:35:36.683,375477550,-1.4149999618530273,-0.05299999937415123,0.006000041961669922,0.006000041961669922,0.0,0.18310546875,-0.1220703125,0.00048828125,-0.0244140625,1.0009765625,2,446602,446592,8,80,0,0,0,8,83,10,1,74432,74432,223296,74432,1,1,5,0,0
2026-05-25T20:35:36.688,375482548,-1.4149999618530273,-0.05299999937415123,0.006000041961669922,0.006000041961669922,0.0,0.18310546875,-0.1220703125,0.00048828125,-0.0244140625,1.0009765625,2,446608,446598,8,80,0,0,0,8,83,10,1,74433,74433,223299,74433,1,1,5,0,0
2026-05-25T20:35:36.693,375487550,-1.4149999618530273,-0.05299999937415123,0.006000041961669922,0.006000041961669922,0.0,0.18310546875,-0.1220703125,0.00048828125,-0.0244140625,1.0009765625,2,446614,446604,8,80,0,0,0,8,83,10,1,74434,74434,223302,74434,1,1,5,0,0
2026-05-25T20:35:36.698,375492549,-1.4149999618530273,-0.05299999937415123,0.006000041961669922,0.006000041961669922,0.0,0.18310546875,-0.1220703125,0.00048828125,-0.0244140625,1.0009765625,2,446620,446610,8,80,0,0,0,8,83,10,1,74435,74435,223305,74435,1,1,5,0,0
2026-05-25T20:35:36.703,375497549,-1.4149999618530273,-0.05299999937415123,0.006000041961669922,0.006000041961669922,0.0,0.18310546875,-0.1220703125,0.00048828125,-0.0244140625,1.0009765625,2,446626,446616,8,80,0,0,0,8,83,10,1,74436,74436,223308,74436,1,1,5,0,0
2026-05-25T20:35:36.708,375502559,-1.4149999618530273,-0.05299999937415123,0.006000041961669922,0.006000041961669922,0.0,0.18310546875,-0.1220703125,0.00048828125,-0.0244140625,1.0009765625,2,446632,446622,8,80,0,0,0,8,83,10,1,74437,74437,223311,74437,1,1,5,0,0
2026-05-25T20:35:36.713,375507550,-1.4149999618530273,-0.05299999937415123,0.006000041961669922,0.006000041961669922,0.0,0.18310546875,-0.1220703125,0.00048828125,-0.0244140625,1.0009765625,2,446638,446628,8,80,0,0,0,8,83,10,1,74438,74438,223314,74438,1,1,5,0,0
2026-05-25T20:35:36.718,375512546,-1.4149999618530273,-0.05299999937415123,0.005000114440917969,0.005000114440917969,0.0,0.18310546875,-0.1220703125,0.00048828125,-0.0244140625,1.0009765625,2,446644,446634,8,80,0,0,0,8,83,10,1,74439,74439,223317,74439,1,1,5,0,0
2026-05-25T20:35:36.723,375517547,-1.4149999618530273,-0.05299999937415123,0.005000114440917969,0.005000114440917969,0.0,0.18310546875,-0.1220703125,0.00048828125,-0.0244140625,1.0009765625,2,446650,446640,8,80,0,0,0,8,83,10,1,74440,74440,223320,74440,1,1,5,0,0
2026-05-25T20:35:36.728,375522547,-1.4149999618530273,-0.05299999937415123,0.005000114440917969,0.005000114440917969,0.0,0.18310546875,-0.1220703125,0.00048828125,-0.0244140625,1.0009765625,2,446656,446646,8,80,0,0,0,8,83,10,1,74441,74441,223323,74441,1,1,5,0,0
2026-05-25T20:35:36.733,375527548,-1.4149999618530273,-0.05299999937415123,0.005000114440917969,0.005000114440917969,0.0,0.18310546875,-0.1220703125,0.00048828125,-0.0244140625,1.0009765625,2,446662,446652,8,80,0,0,0,8,83,10,1,74442,74442,223326,74442,1,1,5,0,0
2026-05-25T20:35:36.738,375532547,-1.4149999618530273,-0.05299999937415123,0.005000114440917969,0.005000114440917969,0.0,0.18310546875,-0.1220703125,0.00048828125,-0.0244140625,1.0009765625,2,446668,446658,8,80,0,0,0,8,83,10,1,74443,74443,223329,74443,1,1,5,0,0
2026-05-25T20:35:36.743,375537546,-1.4149999618530273,-0.05299999937415123,0.005000114440917969,0.005000114440917969,0.0,0.18310546875,-0.1220703125,0.00048828125,-0.0244140625,1.0009765625,2,446674,446664,8,80,0,0,0,8,83,10,1,74444,74444,223332,74444,1,1,5,0,0
2026-05-25T20:35:36.748,375542548,-1.4149999618530273,-0.05299999937415123,0.005000114440917969,0.005000114440917969,0.0,0.18310546875,-0.1220703125,0.00048828125,-0.0244140625,1.0009765625,2,446680,446670,8,80,0,0,0,8,83,10,1,74445,74445,223335,74445,1,1,5,0,0
2026-05-25T20:35:36.753,375547546,-1.4149999618530273,-0.05299999937415123,0.005000114440917969,0.005000114440917969,0.0,0.18310546875,-0.1220703125,0.00048828125,-0.0244140625,1.0009765625,2,446686,446676,8,80,0,0,0,8,83,10,1,74446,74446,223338,74446,1,1,5,0,0
2026-05-25T20:35:36.758,375552547,-1.4149999618530273,-0.05299999937415123,0.005000114440917969,0.005000114440917969,0.0,0.18310546875,-0.1220703125,0.00048828125,-0.0244140625,1.0009765625,2,446692,446682,8,80,0,0,0,8,83,10,1,74447,74447,223341,74447,1,1,5,0,0
2026-05-25T20:35:36.763,375557548,-1.4149999618530273,-0.05299999937415123,0.005000114440917969,0.005000114440917969,0.0,0.18310546875,-0.1220703125,0.00048828125,-0.0244140625,1.0009765625,2,446698,446688,8,80,0,0,0,8,83,10,1,74448,74448,223344,74448,1,1,5,0,0
2026-05-25T20:35:36.768,375562549,-1.4149999618530273,-0.05299999937415123,0.005000114440917969,0.005000114440917969,0.0,0.18310546875,-0.1220703125,0.00048828125,-0.0244140625,1.0009765625,2,446704,446694,8,80,0,0,0,8,83,10,1,74449,74449,223347,74449,1,1,5,0,0
2026-05-25T20:35:36.773,375567549,-1.4149999618530273,-0.05299999937415123,0.005000114440917969,0.005000114440917969,0.0,0.18310546875,-0.1220703125,0.00048828125,-0.0244140625,1.0009765625,2,446710,446700,8,80,0,0,0,8,83,10,1,74450,74450,223350,74450,1,1,5,0,0
2026-05-25T20:35:36.778,375572548,-1.4149999618530273,-0.05299999937415123,0.005000114440917969,0.005000114440917969,0.0,0.18310546875,-0.1220703125,0.00048828125,-0.0244140625,1.0009765625,2,446716,446706,8,80,0,0,0,8,83,10,1,74451,74451,223353,74451,1,1,5,0,0
2026-05-25T20:35:36.783,375577547,-1.4149999618530273,-0.05299999937415123,0.005000114440917969,0.005000114440917969,0.0,0.18310546875,-0.1220703125,0.00048828125,-0.0244140625,1.0009765625,2,446722,446712,8,80,0,0,0,8,83,10,1,74452,74452,223356,74452,1,1,5,0,0
2026-05-25T20:35:36.788,375582546,-1.4149999618530273,-0.05299999937415123,0.005000114440917969,0.005000114440917969,0.0,0.18310546875,-0.1220703125,0.00048828125,-0.0244140625,1.0009765625,2,446728,446718,8,80,0,0,0,8,83,10,1,74453,74453,223359,74453,1,1,5,0,0
2026-05-25T20:35:36.793,375587549,-1.4149999618530273,-0.05299999937415123,0.005000114440917969,0.005000114440917969,0.0,0.18310546875,-0.1220703125,0.00048828125,-0.0244140625,1.0009765625,2,446734,446724,8,80,0,0,0,8,83,10,1,74454,74454,223362,74454,1,1,5,0,0
2026-05-25T20:35:36.798,375592547,-1.4149999618530273,-0.05299999937415123,0.005000114440917969,0.005000114440917969,0.0,0.18310546875,-0.1220703125,0.00048828125,-0.0244140625,1.0009765625,2,446740,446730,8,80,0,0,0,8,83,10,1,74455,74455,223365,74455,1,1,5,0,0
2026-05-25T20:35:36.803,375597548,-1.4149999618530273,-0.05299999937415123,0.005000114440917969,0.005000114440917969,0.0,0.18310546875,-0.1220703125,0.00048828125,-0.0244140625,1.0009765625,2,446746,446736,8,80,0,0,0,8,83,10,1,74456,74456,223368,74456,1,1,5,0,0
2026-05-25T20:35:36.808,375602548,-1.4149999618530273,-0.05299999937415123,0.005000114440917969,0.005000114440917969,0.0,0.18310546875,-0.1220703125,0.00048828125,-0.0244140625,1.0009765625,2,446752,446742,8,80,0,0,0,8,83,10,1,74457,74457,223371,74457,1,1,5,0,0
2026-05-25T20:35:36.813,375607550,-1.4149999618530273,-0.05299999937415123,0.005000114440917969,0.005000114440917969,0.0,0.18310546875,-0.1220703125,0.00048828125,-0.0244140625,1.0009765625,2,446758,446748,8,80,0,0,0,8,83,10,1,74458,74458,223374,74458,1,1,5,0,0
2026-05-25T20:35:36.818,375612550,-1.4149999618530273,-0.05299999937415123,0.005000114440917969,0.005000114440917969,0.0,0.18310546875,-0.1220703125,0.00048828125,-0.0244140625,1.0009765625,2,446764,446754,8,80,0,0,0,8,83,10,1,74459,74459,223377,74459,1,1,5,0,0
2026-05-25T20:35:36.823,375617548,-1.4149999618530273,-0.05299999937415123,0.005000114440917969,0.005000114440917969,0.0,0.18310546875,-0.1220703125,0.00048828125,-0.0244140625,1.0009765625,2,446770,446760,8,80,0,0,0,8,83,10,1,74460,74460,223380,74460,1,1,5,0,0
2026-05-25T20:35:36.828,375622549,-1.4149999618530273,-0.05299999937415123,0.005000114440917969,0.005000114440917969,0.0,0.18310546875,-0.1220703125,0.00048828125,-0.0244140625,1.0009765625,2,446776,446766,8,80,0,0,0,8,83,10,1,74461,74461,223383,74461,1,1,5,0,0
2026-05-25T20:35:36.833,375627549,-1.4149999618530273,-0.05299999937415123,0.005000114440917969,0.005000114440917969,0.0,0.18310546875,-0.1220703125,0.00048828125,-0.0244140625,1.0009765625,2,446782,446772,8,80,0,0,0,8,83,10,1,74462,74462,223386,74462,1,1,5,0,0
2026-05-25T20:35:36.838,375632548,-1.4149999618530273,-0.05299999937415123,0.005000114440917969,0.005000114440917969,0.0,0.18310546875,-0.1220703125,0.00048828125,-0.0244140625,1.0009765625,2,446788,446778,8,80,0,0,0,8,83,10,1,74463,74463,223389,74463,1,1,5,0,0
2026-05-25T20:35:36.843,375637550,-1.4149999618530273,-0.05299999937415123,0.005000114440917969,0.005000114440917969,0.0,0.18310546875,-0.1220703125,0.00048828125,-0.0244140625,1.0009765625,2,446794,446784,8,80,0,0,0,8,83,10,1,74464,74464,223392,74464,1,1,5,0,0
2026-05-25T20:35:36.848,375642547,-1.4149999618530273,-0.05299999937415123,0.005000114440917969,0.005000114440917969,0.0,0.18310546875,-0.1220703125,0.00048828125,-0.0244140625,1.0009765625,2,446800,446790,8,80,0,0,0,8,83,10,1,74465,74465,223395,74465,1,1,5,0,0
2026-05-25T20:35:36.853,375647548,-1.4149999618530273,-0.05299999937415123,0.005000114440917969,0.005000114440917969,0.0,0.18310546875,-0.1220703125,0.00048828125,-0.0244140625,1.0009765625,2,446806,446796,8,80,0,0,0,8,83,10,1,74466,74466,223398,74466,1,1,5,0,0
2026-05-25T20:35:36.858,375652546,-1.4149999618530273,-0.05299999937415123,0.003999948501586914,0.003999948501586914,0.0,0.18310546875,-0.1220703125,0.00048828125,-0.0244140625,1.0009765625,2,446812,446802,8,80,0,0,0,8,83,10,1,74467,74467,223401,74467,1,1,5,0,0
2026-05-25T20:35:36.863,375657546,-1.4149999618530273,-0.05299999937415123,0.003999948501586914,0.003999948501586914,0.0,0.18310546875,-0.1220703125,0.00048828125,-0.0244140625,1.0009765625,2,446818,446808,8,80,0,0,0,8,83,10,1,74468,74468,223404,74468,1,1,5,0,0
2026-05-25T20:35:36.868,375662552,-1.4149999618530273,-0.05299999937415123,0.003999948501586914,0.003999948501586914,0.0,0.18310546875,-0.1220703125,0.00048828125,-0.0244140625,1.0009765625,2,446824,446814,8,80,0,0,0,8,83,10,1,74469,74469,223407,74469,1,1,5,0,0
2026-05-25T20:35:36.873,375667549,-1.4149999618530273,-0.05299999937415123,0.003999948501586914,0.003999948501586914,0.0,0.18310546875,-0.1220703125,0.00048828125,-0.0244140625,1.0009765625,2,446830,446820,8,80,0,0,0,8,83,10,1,74470,74470,223410,74470,1,1,5,0,0
2026-05-25T20:35:36.878,375672547,-1.4149999618530273,-0.05299999937415123,0.003999948501586914,0.003999948501586914,0.0,0.18310546875,-0.1220703125,0.00048828125,-0.0244140625,1.0009765625,2,446836,446826,8,80,0,0,0,8,83,10,1,74471,74471,223413,74471,1,1,5,0,0
2026-05-25T20:35:36.883,375677548,-1.4149999618530273,-0.05299999937415123,0.003999948501586914,0.003999948501586914,0.0,0.18310546875,-0.1220703125,0.00048828125,-0.0244140625,1.0009765625,2,446842,446832,8,80,0,0,0,8,83,10,1,74472,74472,223416,74472,1,1,5,0,0
2026-05-25T20:35:36.888,375682548,-1.4149999618530273,-0.05299999937415123,0.003999948501586914,0.003999948501586914,0.0,0.18310546875,-0.1220703125,0.00048828125,-0.0244140625,1.0009765625,2,446848,446838,8,80,0,0,0,8,83,10,1,74473,74473,223419,74473,1,1,5,0,0
2026-05-25T20:35:36.893,375687552,-1.4149999618530273,-0.05299999937415123,0.003999948501586914,0.003999948501586914,0.0,0.18310546875,-0.1220703125,0.00048828125,-0.0244140625,1.0009765625,2,446854,446844,8,80,0,0,0,8,83,10,1,74474,74474,223422,74474,1,1,5,0,0
2026-05-25T20:35:36.898,375692548,-1.4149999618530273,-0.05299999937415123,0.003999948501586914,0.003999948501586914,0.0,0.18310546875,-0.1220703125,0.00048828125,-0.0244140625,1.0009765625,2,446860,446850,8,80,0,0,0,8,83,10,1,74475,74475,223425,74475,1,1,5,0,0
2026-05-25T20:35:36.903,375697549,-1.4149999618530273,-0.05299999937415123,0.003999948501586914,0.003999948501586914,0.0,0.18310546875,-0.1220703125,0.00048828125,-0.0244140625,1.0009765625,2,446866,446856,8,80,0,0,0,8,83,10,1,74476,74476,223428,74476,1,1,5,0,0
2026-05-25T20:35:36.908,375702550,-1.4149999618530273,-0.05299999937415123,0.003999948501586914,0.003999948501586914,0.0,0.18310546875,-0.1220703125,0.00048828125,-0.0244140625,1.0009765625,2,446872,446862,8,80,0,0,0,8,83,10,1,74477,74477,223431,74477,1,1,5,0,0
2026-05-25T20:35:36.913,375707548,-1.4149999618530273,-0.05299999937415123,0.003999948501586914,0.003999948501586914,0.0,0.18310546875,-0.06103515625,0.00048828125,-0.0244140625,1.0009765625,2,446878,446868,8,80,0,0,0,8,83,10,1,74478,74478,223434,74478,1,1,5,0,0
2026-05-25T20:35:36.918,375712550,-1.4149999618530273,-0.05299999937415123,0.005000114440917969,0.005000114440917969,0.0,0.18310546875,-0.06103515625,0.00048828125,-0.0244140625,1.0009765625,2,446884,446874,8,80,0,0,0,8,83,10,1,74479,74479,223437,74479,1,1,5,0,0
2026-05-25T20:35:36.923,375717549,-1.4149999618530273,-0.05299999937415123,0.005000114440917969,0.005000114440917969,0.0,0.18310546875,-0.06103515625,0.00048828125,-0.0244140625,1.0009765625,2,446890,446880,8,80,0,0,0,8,83,10,1,74480,74480,223440,74480,1,1,5,0,0
2026-05-25T20:35:36.928,375722548,-1.4149999618530273,-0.05299999937415123,0.005000114440917969,0.005000114440917969,0.0,0.18310546875,-0.06103515625,0.00048828125,-0.0244140625,1.0009765625,2,446896,446886,8,80,0,0,0,8,83,10,1,74481,74481,223443,74481,1,1,5,0,0
2026-05-25T20:35:36.933,375727550,-1.4149999618530273,-0.05299999937415123,0.005000114440917969,0.005000114440917969,0.0,0.18310546875,-0.06103515625,0.00048828125,-0.0244140625,1.0009765625,2,446902,446892,8,80,0,0,0,8,83,10,1,74482,74482,223446,74482,1,1,5,0,0
2026-05-25T20:35:36.938,375732549,-1.4149999618530273,-0.05299999937415123,0.006000041961669922,0.006000041961669922,0.0,0.18310546875,-0.06103515625,0.00048828125,-0.0244140625,1.0009765625,2,446908,446898,8,80,0,0,0,8,83,10,1,74483,74483,223449,74483,1,1,5,0,0
2026-05-25T20:35:36.943,375737548,-1.4149999618530273,-0.05299999937415123,0.006000041961669922,0.006000041961669922,0.0,0.18310546875,-0.06103515625,0.00048828125,-0.0244140625,1.0009765625,2,446914,446904,8,80,0,0,0,8,83,10,1,74484,74484,223452,74484,1,1,5,0,0
2026-05-25T20:35:36.948,375742549,-1.4149999618530273,-0.05299999937415123,0.006000041961669922,0.006000041961669922,0.0,0.18310546875,-0.06103515625,0.00048828125,-0.0244140625,1.0009765625,2,446920,446910,8,80,0,0,0,8,83,10,1,74485,74485,223455,74485,1,1,5,0,0
2026-05-25T20:35:36.953,375747550,-1.4149999618530273,-0.05299999937415123,0.006000041961669922,0.006000041961669922,0.06103515625,0.18310546875,-0.1220703125,0.00048828125,-0.0244140625,1.0009765625,2,446926,446916,8,80,0,0,0,8,83,10,1,74486,74486,223458,74486,1,1,5,0,0
2026-05-25T20:35:36.958,375752548,-1.4149999618530273,-0.05299999937415123,0.006000041961669922,0.006000041961669922,0.06103515625,0.18310546875,-0.1220703125,0.00048828125,-0.0244140625,1.0009765625,2,446932,446922,8,80,0,0,0,8,83,10,1,74487,74487,223461,74487,1,1,5,0,0
2026-05-25T20:35:36.963,375757550,-1.4149999618530273,-0.05299999937415123,0.006000041961669922,0.006000041961669922,0.0,0.18310546875,-0.1220703125,0.00048828125,-0.0244140625,1.0009765625,2,446938,446928,8,80,0,0,0,8,83,10,1,74488,74488,223464,74488,1,1,5,0,0
2026-05-25T20:35:36.968,375762554,-1.4149999618530273,-0.05299999937415123,0.006000041961669922,0.006000041961669922,0.0,0.18310546875,-0.1220703125,0.00048828125,-0.0244140625,1.0009765625,2,446944,446934,8,80,0,0,0,8,83,10,1,74489,74489,223467,74489,1,1,5,0,0
2026-05-25T20:35:36.973,375767551,-1.4149999618530273,-0.05299999937415123,0.006000041961669922,0.006000041961669922,0.06103515625,0.18310546875,-0.1220703125,0.00048828125,-0.0244140625,1.0009765625,2,446950,446940,8,80,0,0,0,8,83,10,1,74490,74490,223470,74490,1,1,5,0,0
2026-05-25T20:35:36.978,375772547,-1.4149999618530273,-0.05299999937415123,0.006000041961669922,0.006000041961669922,0.06103515625,0.18310546875,-0.1220703125,0.00048828125,-0.0244140625,1.0009765625,2,446956,446946,8,80,0,0,0,8,83,10,1,74491,74491,223473,74491,1,1,5,0,0
2026-05-25T20:35:36.983,375777546,-1.4149999618530273,-0.05299999937415123,0.006000041961669922,0.006000041961669922,0.06103515625,0.18310546875,-0.1220703125,0.00048828125,-0.0244140625,1.0009765625,2,446962,446952,8,80,0,0,0,8,83,10,1,74492,74492,223476,74492,1,1,5,0,0
2026-05-25T20:35:36.988,375782548,-1.4149999618530273,-0.05299999937415123,0.006000041961669922,0.006000041961669922,0.06103515625,0.18310546875,-0.1220703125,0.00048828125,-0.0244140625,1.0009765625,2,446968,446958,8,80,0,0,0,8,83,10,1,74493,74493,223479,74493,1,1,5,0,0
2026-05-25T20:35:36.993,375787558,-1.4149999618530273,-0.05299999937415123,0.006000041961669922,0.006000041961669922,0.0,0.18310546875,-0.1220703125,0.00048828125,-0.0244140625,1.0009765625,2,446974,446964,8,80,0,0,0,8,83,10,1,74494,74494,223482,74494,1,1,5,0,0
2026-05-25T20:35:36.998,375792546,-1.4149999618530273,-0.05299999937415123,0.006000041961669922,0.006000041961669922,0.0,0.18310546875,-0.1220703125,0.00048828125,-0.0244140625,1.0009765625,2,446980,446970,8,80,0,0,0,8,83,10,1,74495,74495,223485,74495,1,1,5,0,0
2026-05-25T20:35:37.003,375797549,-1.4149999618530273,-0.05299999937415123,0.006000041961669922,0.006000041961669922,0.0,0.18310546875,-0.1220703125,0.00048828125,-0.0244140625,1.0009765625,2,446986,446976,8,80,0,0,0,8,83,10,1,74496,74496,223488,74496,1,1,5,0,0
2026-05-25T20:35:37.008,375802546,-1.4149999618530273,-0.05299999937415123,0.006000041961669922,0.006000041961669922,0.0,0.18310546875,-0.1220703125,0.00048828125,-0.0244140625,1.0009765625,2,446992,446982,8,80,0,0,0,8,83,10,1,74497,74497,223491,74497,1,1,5,0,0
2026-05-25T20:35:37.013,375807549,-1.4149999618530273,-0.05299999937415123,0.006000041961669922,0.006000041961669922,0.0,0.18310546875,-0.1220703125,0.00048828125,-0.0244140625,1.0009765625,2,446998,446988,8,80,0,0,0,8,83,10,1,74498,74498,223494,74498,1,1,5,0,0
2026-05-25T20:35:37.018,375812552,-1.4149999618530273,-0.05299999937415123,0.006000041961669922,0.006000041961669922,0.0,0.18310546875,-0.1220703125,0.00048828125,-0.0244140625,1.0009765625,2,447004,446994,8,80,0,0,0,8,83,10,1,74499,74499,223497,74499,1,1,5,0,0
2026-05-25T20:35:37.023,375817548,-1.4149999618530273,-0.05299999937415123,0.006000041961669922,0.006000041961669922,0.0,0.18310546875,-0.1220703125,0.00048828125,-0.0244140625,1.0009765625,2,447010,447000,8,80,0,0,0,8,83,10,1,74500,74500,223500,74500,1,1,5,0,0
2026-05-25T20:35:37.028,375822549,-1.4149999618530273,-0.05299999937415123,0.006000041961669922,0.006000041961669922,0.0,0.18310546875,-0.1220703125,0.00048828125,-0.0244140625,1.0009765625,2,447016,447006,8,80,0,0,0,8,83,10,1,74501,74501,223503,74501,1,1,5,0,0
2026-05-25T20:35:37.033,375827550,-1.4149999618530273,-0.05299999937415123,0.006000041961669922,0.006000041961669922,0.0,0.18310546875,-0.1220703125,0.00048828125,-0.0244140625,1.0009765625,2,447022,447012,8,80,0,0,0,8,83,10,1,74502,74502,223506,74502,1,1,5,0,0
2026-05-25T20:35:37.038,375832547,-1.4149999618530273,-0.05299999937415123,0.006000041961669922,0.006000041961669922,0.0,0.18310546875,-0.1220703125,0.00048828125,-0.0244140625,1.0009765625,2,447028,447018,8,80,0,0,0,8,83,10,1,74503,74503,223509,74503,1,1,5,0,0
2026-05-25T20:35:37.043,375837548,-1.4149999618530273,-0.05299999937415123,0.006000041961669922,0.006000041961669922,0.0,0.18310546875,-0.1220703125,0.00048828125,-0.0244140625,1.0009765625,2,447034,447024,8,80,0,0,0,8,83,10,1,74504,74504,223512,74504,1,1,5,0,0
2026-05-25T20:35:37.048,375842548,-1.4149999618530273,-0.05299999937415123,0.006000041961669922,0.006000041961669922,0.0,0.18310546875,-0.1220703125,0.00048828125,-0.0244140625,1.0009765625,2,447040,447030,8,80,0,0,0,8,83,10,1,74505,74505,223515,74505,1,1,5,0,0
2026-05-25T20:35:37.053,375847550,-1.4149999618530273,-0.05299999937415123,0.006000041961669922,0.006000041961669922,0.0,0.18310546875,-0.1220703125,0.00048828125,-0.0244140625,1.0009765625,2,447046,447036,8,80,0,0,0,8,83,10,1,74506,74506,223518,74506,1,1,5,0,0
2026-05-25T20:35:37.058,375852548,-1.4149999618530273,-0.05299999937415123,0.005000114440917969,0.005000114440917969,0.0,0.18310546875,-0.1220703125,0.00048828125,-0.0244140625,1.0009765625,2,447052,447042,8,80,0,0,0,8,83,10,1,74507,74507,223521,74507,1,1,5,0,0
2026-05-25T20:35:37.063,375857549,-1.4149999618530273,-0.05299999937415123,0.005000114440917969,0.005000114440917969,0.0,0.18310546875,-0.1220703125,0.00048828125,-0.0244140625,1.0009765625,2,447058,447048,8,80,0,0,0,8,83,10,1,74508,74508,223524,74508,1,1,5,0,0
2026-05-25T20:35:37.068,375862554,-1.4149999618530273,-0.05299999937415123,0.005000114440917969,0.005000114440917969,0.0,0.18310546875,-0.1220703125,0.00048828125,-0.0244140625,1.0009765625,2,447064,447054,8,80,0,0,0,8,83,10,1,74509,74509,223527,74509,1,1,5,0,0
2026-05-25T20:35:37.073,375867549,-1.4149999618530273,-0.05299999937415123,0.005000114440917969,0.005000114440917969,0.0,0.18310546875,-0.1220703125,0.00048828125,-0.0244140625,1.0009765625,2,447070,447060,8,80,0,0,0,8,83,10,1,74510,74510,223530,74510,1,1,5,0,0
2026-05-25T20:35:37.078,375872548,-1.4149999618530273,-0.05299999937415123,0.005000114440917969,0.005000114440917969,0.0,0.18310546875,-0.1220703125,0.00048828125,-0.0244140625,1.0009765625,2,447076,447066,8,80,0,0,0,8,83,10,1,74511,74511,223533,74511,1,1,5,0,0
2026-05-25T20:35:37.083,375877550,-1.4149999618530273,-0.05299999937415123,0.005000114440917969,0.005000114440917969,0.0,0.18310546875,-0.1220703125,0.00048828125,-0.0244140625,1.0009765625,2,447082,447072,8,80,0,0,0,8,83,10,1,74512,74512,223536,74512,1,1,5,0,0
2026-05-25T20:35:37.088,375882549,-1.4149999618530273,-0.05299999937415123,0.005000114440917969,0.005000114440917969,0.0,0.18310546875,-0.1220703125,0.00048828125,-0.0244140625,1.0009765625,2,447088,447078,8,80,0,0,0,8,83,10,1,74513,74513,223539,74513,1,1,5,0,0
2026-05-25T20:35:37.094,375887559,-1.4149999618530273,-0.05299999937415123,0.005000114440917969,0.005000114440917969,-0.06103515625,0.18310546875,-0.1220703125,0.00048828125,-0.0244140625,1.0009765625,2,447094,447084,8,80,0,0,0,8,83,10,1,74514,74514,223542,74514,1,1,5,0,0
2026-05-25T20:35:37.098,375892550,-1.4149999618530273,-0.05299999937415123,0.005000114440917969,0.005000114440917969,-0.06103515625,0.18310546875,-0.1220703125,0.00048828125,-0.0244140625,1.0009765625,2,447100,447090,8,80,0,0,0,8,83,10,1,74515,74515,223545,74515,1,1,5,0,0
2026-05-25T20:35:37.103,375897546,-1.4149999618530273,-0.05299999937415123,0.005000114440917969,0.005000114440917969,-0.06103515625,0.18310546875,-0.1220703125,0.00048828125,-0.0244140625,1.0009765625,2,447106,447096,8,80,0,0,0,8,83,10,1,74516,74516,223548,74516,1,1,5,0,0
2026-05-25T20:35:37.108,375902548,-1.4149999618530273,-0.05299999937415123,0.005000114440917969,0.005000114440917969,-0.06103515625,0.18310546875,-0.1220703125,0.00048828125,-0.0244140625,1.0009765625,2,447112,447102,8,80,0,0,0,8,83,10,1,74517,74517,223551,74517,1,1,5,0,0
2026-05-25T20:35:37.113,375907549,-1.4149999618530273,-0.05299999937415123,0.005000114440917969,0.005000114440917969,0.0,0.18310546875,-0.1220703125,0.00048828125,-0.0244140625,1.0009765625,2,447118,447108,8,80,0,0,0,8,83,10,1,74518,74518,223554,74518,1,1,5,0,0
2026-05-25T20:35:37.118,375912550,-1.4149999618530273,-0.05299999937415123,0.005000114440917969,0.005000114440917969,0.0,0.18310546875,-0.1220703125,0.00048828125,-0.0244140625,1.0009765625,2,447124,447114,8,80,0,0,0,8,83,10,1,74519,74519,223557,74519,1,1,5,0,0
2026-05-25T20:35:37.123,375917549,-1.4149999618530273,-0.05299999937415123,0.005000114440917969,0.005000114440917969,0.0,0.18310546875,-0.1220703125,0.00048828125,-0.0244140625,1.0009765625,2,447130,447120,8,80,0,0,0,8,83,10,1,74520,74520,223560,74520,1,1,5,0,0
2026-05-25T20:35:37.128,375922549,-1.4149999618530273,-0.05299999937415123,0.005000114440917969,0.005000114440917969,0.0,0.18310546875,-0.1220703125,0.00048828125,-0.0244140625,1.0009765625,2,447136,447126,8,80,0,0,0,8,83,10,1,74521,74521,223563,74521,1,1,5,0,0
2026-05-25T20:35:37.133,375927550,-1.4149999618530273,-0.05299999937415123,0.005000114440917969,0.005000114440917969,0.0,0.18310546875,-0.1220703125,0.00048828125,-0.0244140625,1.0009765625,2,447142,447132,8,80,0,0,0,8,83,10,1,74522,74522,223566,74522,1,1,5,0,0
2026-05-25T20:35:37.138,375932548,-1.4149999618530273,-0.05299999937415123,0.005000114440917969,0.005000114440917969,0.0,0.18310546875,-0.1220703125,0.00048828125,-0.0244140625,1.0009765625,2,447148,447138,8,80,0,0,0,8,83,10,1,74523,74523,223569,74523,1,1,5,0,0
2026-05-25T20:35:37.143,375937549,-1.4149999618530273,-0.05299999937415123,0.005000114440917969,0.005000114440917969,0.0,0.18310546875,-0.1220703125,0.00048828125,-0.0244140625,1.0009765625,2,447154,447144,8,80,0,0,0,8,83,10,1,74524,74524,223572,74524,1,1,5,0,0
2026-05-25T20:35:37.148,375942550,-1.4149999618530273,-0.05299999937415123,0.005000114440917969,0.005000114440917969,0.0,0.18310546875,-0.1220703125,0.00048828125,-0.0244140625,1.0009765625,2,447160,447150,8,80,0,0,0,8,83,10,1,74525,74525,223575,74525,1,1,5,0,0
2026-05-25T20:35:37.153,375947550,-1.4149999618530273,-0.05299999937415123,0.005000114440917969,0.005000114440917969,0.0,0.18310546875,-0.1220703125,0.00048828125,-0.0244140625,1.0009765625,2,447166,447156,8,80,0,0,0,8,83,10,1,74526,74526,223578,74526,1,1,5,0,0
2026-05-25T20:35:37.158,375952549,-1.4149999618530273,-0.05299999937415123,0.005000114440917969,0.005000114440917969,0.0,0.18310546875,-0.1220703125,0.00048828125,-0.0244140625,1.0009765625,2,447172,447162,8,80,0,0,0,8,83,10,1,74527,74527,223581,74527,1,1,5,0,0
2026-05-25T20:35:37.163,375957550,-1.4149999618530273,-0.05299999937415123,0.005000114440917969,0.005000114440917969,0.0,0.18310546875,-0.1220703125,0.00048828125,-0.0244140625,1.0009765625,2,447178,447168,8,80,0,0,0,8,83,10,1,74528,74528,223584,74528,1,1,5,0,0
2026-05-25T20:35:37.168,375962552,-1.4149999618530273,-0.05299999937415123,0.005000114440917969,0.005000114440917969,0.0,0.18310546875,-0.1220703125,0.00048828125,-0.0244140625,1.0009765625,2,447184,447174,8,80,0,0,0,8,83,10,1,74529,74529,223587,74529,1,1,5,0,0
2026-05-25T20:35:37.173,375967550,-1.4149999618530273,-0.05299999937415123,0.005000114440917969,0.005000114440917969,0.0,0.18310546875,-0.1220703125,0.00048828125,-0.0244140625,1.0009765625,2,447190,447180,8,80,0,0,0,8,83,10,1,74530,74530,223590,74530,1,1,5,0,0
2026-05-25T20:35:37.178,375972549,-1.4149999618530273,-0.05299999937415123,0.005000114440917969,0.005000114440917969,0.0,0.18310546875,-0.1220703125,0.00048828125,-0.0244140625,1.0009765625,2,447196,447186,8,80,0,0,0,8,83,10,1,74531,74531,223593,74531,1,1,5,0,0
2026-05-25T20:35:37.183,375977549,-1.4149999618530273,-0.05299999937415123,0.005000114440917969,0.005000114440917969,0.0,0.18310546875,-0.1220703125,0.00048828125,-0.0244140625,1.0009765625,2,447202,447192,8,80,0,0,0,8,83,10,1,74532,74532,223596,74532,1,1,5,0,0
2026-05-25T20:35:37.188,375982550,-1.4149999618530273,-0.05299999937415123,0.005000114440917969,0.005000114440917969,0.0,0.18310546875,-0.1220703125,0.00048828125,-0.0244140625,1.0009765625,2,447208,447198,8,80,0,0,0,8,83,10,1,74533,74533,223599,74533,1,1,5,0,0
2026-05-25T20:35:37.193,375987550,-1.4149999618530273,-0.05299999937415123,0.005000114440917969,0.005000114440917969,0.0,0.18310546875,-0.1220703125,0.00048828125,-0.0244140625,1.0009765625,2,447214,447204,8,80,0,0,0,8,83,10,1,74534,74534,223602,74534,1,1,5,0,0
2026-05-25T20:35:37.198,375992548,-1.4149999618530273,-0.05299999937415123,0.003999948501586914,0.003999948501586914,0.0,0.18310546875,-0.1220703125,0.00048828125,-0.0244140625,1.0009765625,2,447220,447210,8,80,0,0,0,8,83,10,1,74535,74535,223605,74535,1,1,5,0,0
2026-05-25T20:35:37.203,375997550,-1.4149999618530273,-0.05299999937415123,0.003999948501586914,0.003999948501586914,0.0,0.18310546875,-0.1220703125,0.00048828125,-0.0244140625,1.0009765625,2,447226,447216,8,80,0,0,0,8,83,10,1,74536,74536,223608,74536,1,1,5,0,0
2026-05-25T20:35:37.208,376002542,-1.4149999618530273,-0.05299999937415123,0.003999948501586914,0.003999948501586914,0.0,0.18310546875,-0.1220703125,0.00048828125,-0.0244140625,1.0009765625,2,447232,447222,8,80,0,0,0,8,83,10,1,74537,74537,223611,74537,1,1,5,0,0
2026-05-25T20:35:37.213,376007544,-1.4149999618530273,-0.05299999937415123,0.003999948501586914,0.003999948501586914,0.0,0.18310546875,-0.1220703125,0.00048828125,-0.0244140625,1.0009765625,2,447238,447228,8,80,0,0,0,8,83,10,1,74538,74538,223614,74538,1,1,5,0,0
2026-05-25T20:35:37.218,376012546,-1.4149999618530273,-0.05299999937415123,0.003999948501586914,0.003999948501586914,0.0,0.18310546875,-0.1220703125,0.00048828125,-0.0244140625,1.0009765625,2,447244,447234,8,80,0,0,0,8,83,10,1,74539,74539,223617,74539,1,1,5,0,0
2026-05-25T20:35:37.223,376017542,-1.4149999618530273,-0.05299999937415123,0.003999948501586914,0.003999948501586914,0.0,0.18310546875,-0.1220703125,0.00048828125,-0.0244140625,1.0009765625,2,447250,447240,8,80,0,0,0,8,83,10,1,74540,74540,223620,74540,1,1,5,0,0
2026-05-25T20:35:37.228,376022544,-1.4149999618530273,-0.05299999937415123,0.003999948501586914,0.003999948501586914,0.0,0.18310546875,-0.1220703125,0.00048828125,-0.0244140625,1.0009765625,2,447256,447246,8,80,0,0,0,8,83,10,1,74541,74541,223623,74541,1,1,5,0,0
2026-05-25T20:35:37.233,376027545,-1.4149999618530273,-0.05299999937415123,0.003999948501586914,0.003999948501586914,0.0,0.18310546875,-0.1220703125,0.00048828125,-0.0244140625,1.0009765625,2,447262,447252,8,80,0,0,0,8,83,10,1,74542,74542,223626,74542,1,1,5,0,0
2026-05-25T20:35:37.238,376032542,-1.4149999618530273,-0.05299999937415123,0.003999948501586914,0.003999948501586914,0.0,0.18310546875,-0.1220703125,0.00048828125,-0.0244140625,1.0009765625,2,447268,447258,8,80,0,0,0,8,83,10,1,74543,74543,223629,74543,1,1,5,0,0
2026-05-25T20:35:37.243,376037544,-1.4149999618530273,-0.05299999937415123,0.003999948501586914,0.003999948501586914,0.0,0.18310546875,-0.1220703125,0.00048828125,-0.0244140625,1.0009765625,2,447274,447264,8,80,0,0,0,8,83,10,1,74544,74544,223632,74544,1,1,5,0,0
2026-05-25T20:35:37.248,376042544,-1.4149999618530273,-0.05299999937415123,0.003999948501586914,0.003999948501586914,0.0,0.18310546875,-0.1220703125,0.00048828125,-0.0244140625,1.0009765625,2,447280,447270,8,80,0,0,0,8,83,10,1,74545,74545,223635,74545,1,1,5,0,0
2026-05-25T20:35:37.253,376047547,-1.4149999618530273,-0.05299999937415123,0.003999948501586914,0.003999948501586914,0.0,0.18310546875,-0.1220703125,0.00048828125,-0.0244140625,1.0009765625,2,447286,447276,8,80,0,0,0,8,83,10,1,74546,74546,223638,74546,1,1,5,0,0
2026-05-25T20:35:37.258,376052544,-1.4160000085830688,-0.05299999937415123,0.003999948501586914,0.003999948501586914,0.0,0.18310546875,-0.1220703125,0.00048828125,-0.0244140625,1.0009765625,2,447292,447282,8,80,0,0,0,8,83,10,1,74547,74547,223641,74547,1,1,5,0,0
2026-05-25T20:35:37.263,376057545,-1.4160000085830688,-0.05299999937415123,0.003999948501586914,0.003999948501586914,0.0,0.18310546875,-0.1220703125,0.00048828125,-0.0244140625,1.0009765625,2,447298,447288,8,80,0,0,0,8,83,10,1,74548,74548,223644,74548,1,1,5,0,0
2026-05-25T20:35:37.268,376062549,-1.4160000085830688,-0.05299999937415123,0.003999948501586914,0.003999948501586914,0.0,0.18310546875,-0.1220703125,0.00048828125,-0.0244140625,1.0009765625,2,447304,447294,8,80,0,0,0,8,83,10,1,74549,74549,223647,74549,1,1,5,0,0
2026-05-25T20:35:37.273,376067544,-1.4160000085830688,-0.05299999937415123,0.003999948501586914,0.003999948501586914,0.0,0.18310546875,-0.1220703125,0.00048828125,-0.0244140625,1.0009765625,2,447310,447300,8,80,0,0,0,8,83,10,1,74550,74550,223650,74550,1,1,5,0,0
2026-05-25T20:35:37.278,376072544,-1.4160000085830688,-0.05299999937415123,0.003999948501586914,0.003999948501586914,0.0,0.18310546875,-0.1220703125,0.00048828125,-0.0244140625,1.0009765625,2,447316,447306,8,80,0,0,0,8,83,10,1,74551,74551,223653,74551,1,1,5,0,0
2026-05-25T20:35:37.283,376077545,-1.4160000085830688,-0.05299999937415123,0.003999948501586914,0.003999948501586914,0.0,0.18310546875,-0.1220703125,0.00048828125,-0.02490234375,1.0009765625,2,447322,447312,8,80,0,0,0,8,83,10,1,74552,74552,223656,74552,1,1,5,0,0
2026-05-25T20:35:37.288,376082552,-1.4160000085830688,-0.05299999937415123,0.003999948501586914,0.003999948501586914,0.0,0.18310546875,-0.1220703125,0.00048828125,-0.0244140625,1.0009765625,2,447328,447318,8,80,0,0,0,8,83,10,1,74553,74553,223659,74553,1,1,5,0,0
2026-05-25T20:35:37.293,376087554,-1.4160000085830688,-0.05299999937415123,0.003999948501586914,0.003999948501586914,0.0,0.18310546875,-0.1220703125,0.00048828125,-0.0244140625,1.0009765625,2,447334,447324,8,80,0,0,0,8,83,10,1,74554,74554,223662,74554,1,1,5,0,0
2026-05-25T20:35:37.298,376092553,-1.4160000085830688,-0.05299999937415123,0.003999948501586914,0.003999948501586914,0.0,0.18310546875,-0.1220703125,0.00048828125,-0.0244140625,1.0009765625,2,447340,447330,8,80,0,0,0,8,83,10,1,74555,74555,223665,74555,1,1,5,0,0
2026-05-25T20:35:37.303,376097552,-1.4160000085830688,-0.05299999937415123,0.003999948501586914,0.003999948501586914,0.0,0.18310546875,-0.1220703125,0.00048828125,-0.0244140625,1.0009765625,2,447346,447336,8,80,0,0,0,8,83,10,1,74556,74556,223668,74556,1,1,5,0,0
2026-05-25T20:35:37.308,376102553,-1.4160000085830688,-0.05299999937415123,0.003999948501586914,0.003999948501586914,0.0,0.18310546875,-0.1220703125,0.00048828125,-0.0244140625,1.0009765625,2,447352,447342,8,80,0,0,0,8,83,10,1,74557,74557,223671,74557,1,1,5,0,0
2026-05-25T20:35:37.313,376107554,-1.4160000085830688,-0.05299999937415123,0.003999948501586914,0.003999948501586914,0.06103515625,0.18310546875,-0.06103515625,0.00048828125,-0.0244140625,1.0009765625,2,447358,447348,8,80,0,0,0,8,83,10,1,74558,74558,223674,74558,1,1,5,0,0
2026-05-25T20:35:37.318,376112556,-1.4160000085830688,-0.05299999937415123,0.003999948501586914,0.003999948501586914,0.06103515625,0.18310546875,-0.06103515625,0.00048828125,-0.0244140625,1.0009765625,2,447364,447354,8,80,0,0,0,8,83,10,1,74559,74559,223677,74559,1,1,5,0,0
2026-05-25T20:35:37.323,376117554,-1.4160000085830688,-0.05299999937415123,0.003999948501586914,0.003999948501586914,0.06103515625,0.18310546875,-0.06103515625,0.00048828125,-0.0244140625,1.0009765625,2,447370,447360,8,80,0,0,0,8,83,10,1,74560,74560,223680,74560,1,1,5,0,0
2026-05-25T20:35:37.328,376122554,-1.4160000085830688,-0.05299999937415123,0.005000114440917969,0.005000114440917969,0.06103515625,0.18310546875,-0.06103515625,0.00048828125,-0.02490234375,1.0009765625,2,447376,447366,8,80,0,0,0,8,83,10,1,74561,74561,223683,74561,1,1,5,0,0
2026-05-25T20:35:37.333,376127557,-1.4160000085830688,-0.05299999937415123,0.005000114440917969,0.005000114440917969,0.06103515625,0.18310546875,-0.06103515625,0.00048828125,-0.02490234375,1.0009765625,2,447382,447372,8,80,0,0,0,8,83,10,1,74562,74562,223686,74562,1,1,5,0,0
2026-05-25T20:35:37.338,376132550,-1.4160000085830688,-0.05299999937415123,0.005000114440917969,0.005000114440917969,0.0,0.18310546875,-0.06103515625,0.00048828125,-0.0244140625,1.0009765625,2,447388,447378,8,80,0,0,0,8,83,10,1,74563,74563,223689,74563,1,1,5,0,0
2026-05-25T20:35:37.343,376137552,-1.4160000085830688,-0.05299999937415123,0.006000041961669922,0.006000041961669922,0.0,0.18310546875,-0.06103515625,0.00048828125,-0.0244140625,1.0009765625,2,447394,447384,8,80,0,0,0,8,83,10,1,74564,74564,223692,74564,1,1,5,0,0
2026-05-25T20:35:37.348,376142553,-1.4160000085830688,-0.05299999937415123,0.006000041961669922,0.006000041961669922,0.0,0.18310546875,-0.06103515625,0.00048828125,-0.0244140625,1.0009765625,2,447400,447390,8,80,0,0,0,8,83,10,1,74565,74565,223695,74565,1,1,5,0,0
2026-05-25T20:35:37.353,376147553,-1.4149999618530273,-0.05299999937415123,0.0009999275207519531,0.0009999275207519531,0.06103515625,0.1220703125,-1.0986328125,0.0009765625,-0.0244140625,1.0009765625,2,447406,447396,8,80,0,0,0,8,83,10,1,74566,74566,223698,74566,1,1,5,0,0
2026-05-25T20:35:37.358,376152552,-1.4149999618530273,-0.05299999937415123,-0.003999948501586914,-0.003999948501586914,0.06103515625,0.1220703125,-1.0986328125,0.0009765625,-0.0244140625,1.0009765625,2,447412,447402,8,80,0,0,0,8,83,10,1,74567,74567,223701,74567,1,1,5,0,0
2026-05-25T20:35:37.363,376157554,-1.4149999618530273,-0.05400000140070915,-0.009000062942504883,-0.009000062942504883,0.0,0.1220703125,-1.0986328125,0.0009765625,-0.0244140625,1.0009765625,2,447418,447408,8,80,0,0,0,8,83,10,1,74568,74568,223704,74568,1,1,5,0,0
2026-05-25T20:35:37.368,376162556,-1.4140000343322754,-0.05400000140070915,-0.01399993896484375,-0.01399993896484375,0.06103515625,0.1220703125,-1.0986328125,0.0009765625,-0.0244140625,1.0009765625,2,447424,447414,8,80,0,0,0,8,83,10,1,74569,74569,223707,74569,1,1,5,0,0
2026-05-25T20:35:37.373,376167554,-1.4140000343322754,-0.054999999701976776,-0.01900005340576172,-0.01900005340576172,0.06103515625,0.1220703125,-1.0986328125,0.0009765625,-0.0244140625,1.0009765625,2,447430,447420,8,80,0,0,0,8,83,10,1,74570,74570,223710,74570,1,1,5,0,0
2026-05-25T20:35:37.378,376172564,-1.4140000343322754,-0.054999999701976776,-0.023999929428100586,-0.023999929428100586,0.06103515625,0.1220703125,-1.0986328125,0.0009765625,-0.0244140625,1.0009765625,2,447436,447426,8,80,0,0,0,8,83,10,1,74571,74571,223713,74571,1,1,5,0,0
2026-05-25T20:35:37.383,376177553,-1.4129999876022339,-0.0560000017285347,-0.029000043869018555,-0.029000043869018555,0.06103515625,0.1220703125,-1.0986328125,0.0009765625,-0.0244140625,1.0009765625,2,447442,447432,8,80,0,0,0,8,83,10,1,74572,74572,223716,74572,1,1,5,0,0
2026-05-25T20:35:37.388,376182554,-1.4129999876022339,-0.0560000017285347,-0.03299999237060547,-0.03299999237060547,0.06103515625,0.1220703125,-1.0986328125,0.0009765625,-0.0244140625,1.0009765625,2,447448,447438,8,80,0,0,0,8,83,10,1,74573,74573,223719,74573,1,1,5,0,0
2026-05-25T20:35:37.393,376187556,-1.4129999876022339,-0.0560000017285347,-0.046000003814697266,-0.046000003814697266,-0.06103515625,0.3662109375,-2.62451171875,0.0009765625,-0.0244140625,1.0009765625,2,447454,447444,8,80,0,0,0,8,83,10,1,74574,74574,223722,74574,1,1,5,0,0
2026-05-25T20:35:37.398,376192550,-1.4140000343322754,-0.054999999701976776,-0.05900001525878906,-0.05900001525878906,-0.06103515625,0.3662109375,-2.62451171875,0.0009765625,-0.0244140625,1.0009765625,2,447460,447450,8,80,0,0,0,8,83,10,1,74575,74575,223725,74575,1,1,5,0,0
2026-05-25T20:35:37.403,376197553,-1.4149999618530273,-0.05400000140070915,-0.0709998607635498,-0.0709998607635498,-0.06103515625,0.3662109375,-2.62451171875,0.0009765625,-0.0244140625,1.0009765625,2,447466,447456,8,80,0,0,0,8,83,10,1,74576,74576,223728,74576,1,1,5,0,0
2026-05-25T20:35:37.408,376202553,-1.4149999618530273,-0.05400000140070915,-0.0839998722076416,-0.0839998722076416,-0.1220703125,0.3662109375,-2.62451171875,0.0009765625,-0.0244140625,1.0009765625,2,447472,447462,8,80,0,0,0,8,83,10,1,74577,74577,223731,74577,1,1,5,0,0
2026-05-25T20:35:37.413,376207556,-1.4160000085830688,-0.05299999937415123,-0.09599995613098145,-0.09599995613098145,-0.1220703125,0.3662109375,-2.62451171875,0.0009765625,-0.0244140625,1.0009765625,2,447478,447468,8,80,0,0,0,8,83,10,1,74578,74578,223734,74578,1,1,5,0,0
2026-05-25T20:35:37.418,376212557,-1.4160000085830688,-0.052000001072883606,-0.10899996757507324,-0.10899996757507324,-0.06103515625,0.3662109375,-2.62451171875,0.0009765625,-0.0244140625,1.0009765625,2,447484,447474,8,80,0,0,0,8,83,10,1,74579,74579,223737,74579,1,1,5,0,0
2026-05-25T20:35:37.423,376217554,-1.4170000553131104,-0.052000001072883606,-0.12199997901916504,-0.12199997901916504,-0.06103515625,0.3662109375,-2.62451171875,0.0009765625,-0.0244140625,1.0009765625,2,447490,447480,8,80,0,0,0,8,83,10,1,74580,74580,223740,74580,1,1,5,0,0
2026-05-25T20:35:37.428,376222556,-1.4170000553131104,-0.050999999046325684,-0.13400006294250488,-0.13400006294250488,-0.06103515625,0.3662109375,-2.62451171875,0.0009765625,-0.0244140625,1.0009765625,2,447496,447486,8,80,0,0,0,8,83,10,1,74581,74581,223743,74581,1,1,5,0,0
2026-05-25T20:35:37.433,376227554,-1.4160000085830688,-0.05000000074505806,-0.13299989700317383,-0.13299989700317383,0.244140625,0.48828125,0.0,0.0009765625,-0.0244140625,1.0009765625,2,447502,447492,8,80,0,0,0,8,83,10,1,74582,74582,223746,74582,1,1,5,0,0
2026-05-25T20:35:37.438,376232553,-1.4140000343322754,-0.04800000041723251,-0.13199996948242188,-0.13199996948242188,0.244140625,0.48828125,0.0,0.0009765625,-0.0244140625,1.0009765625,2,447508,447498,8,80,0,0,0,8,83,10,1,74583,74583,223749,74583,1,1,5,0,0
2026-05-25T20:35:37.443,376237556,-1.4129999876022339,-0.04699999839067459,-0.13199996948242188,-0.13199996948242188,0.30517578125,0.48828125,0.0,0.0009765625,-0.0244140625,1.0009765625,2,447514,447504,8,80,0,0,0,8,83,10,1,74584,74584,223752,74584,1,1,5,0,0
2026-05-25T20:35:37.448,376242554,-1.4110000133514404,-0.04500000178813934,-0.13100004196166992,-0.13100004196166992,0.30517578125,0.48828125,0.0,0.0009765625,-0.0244140625,1.0009765625,2,447520,447510,8,80,0,0,0,8,83,10,1,74585,74585,223755,74585,1,1,5,0,0
2026-05-25T20:35:37.453,376247557,-1.409999966621399,-0.04399999976158142,-0.12999987602233887,-0.12999987602233887,0.30517578125,0.48828125,0.0,0.0009765625,-0.0244140625,1.0009765625,2,447526,447516,8,80,0,0,0,8,83,10,1,74586,74586,223758,74586,1,1,5,0,0
2026-05-25T20:35:37.458,376252556,-1.4079999923706055,-0.041999999433755875,-0.12899994850158691,-0.12899994850158691,0.244140625,0.48828125,0.0,0.0009765625,-0.0244140625,1.0009765625,2,447532,447522,8,80,0,0,0,8,83,10,1,74587,74587,223761,74587,1,1,5,0,0
2026-05-25T20:35:37.463,376257550,-1.406000018119812,-0.04100000113248825,-0.12800002098083496,-0.12800002098083496,0.30517578125,0.48828125,0.0,0.0009765625,-0.0244140625,1.0009765625,2,447538,447528,8,80,0,0,0,8,83,10,1,74588,74588,223764,74588,1,1,5,0,0
2026-05-25T20:35:37.468,376262556,-1.4049999713897705,-0.039000000804662704,-0.1269998550415039,-0.1269998550415039,0.30517578125,0.48828125,0.0,0.0009765625,-0.0244140625,1.0009765625,2,447544,447534,8,80,0,0,0,8,83,10,1,74589,74589,223767,74589,1,1,5,0,0
2026-05-25T20:35:37.473,376267553,-1.3960000276565552,-0.03700000047683716,-0.1269998550415039,-0.1269998550415039,1.77001953125,0.67138671875,-0.1220703125,0.0009765625,-0.0244140625,1.0009765625,2,447550,447540,8,80,0,0,0,8,83,10,1,74590,74590,223770,74590,1,1,5,0,0
2026-05-25T20:35:37.478,376272560,-1.3869999647140503,-0.03400000184774399,-0.12800002098083496,-0.12800002098083496,1.77001953125,0.67138671875,-0.1220703125,0.0009765625,-0.0244140625,1.0009765625,2,447556,447546,8,80,0,0,0,8,83,10,1,74591,74591,223773,74591,1,1,5,0,0
2026-05-25T20:35:37.483,376277553,-1.3769999742507935,-0.03200000151991844,-0.12800002098083496,-0.12800002098083496,1.8310546875,0.67138671875,-0.1220703125,0.01171875,-0.009765625,1.001953125,2,447562,447552,8,80,0,0,0,8,83,10,1,74592,74592,223776,74592,1,1,5,0,0
2026-05-25T20:35:37.488,376282553,-1.3669999837875366,-0.03099999949336052,-0.12800002098083496,-0.12800002098083496,1.77001953125,0.67138671875,-0.1220703125,0.01171875,-0.009765625,1.001953125,2,447568,447558,8,80,0,0,0,8,83,10,1,74593,74593,223779,74593,1,1,5,0,0
2026-05-25T20:35:37.493,376287556,-1.3569999933242798,-0.028999999165534973,-0.12800002098083496,-0.12800002098083496,1.77001953125,0.67138671875,-0.1220703125,0.01171875,-0.009765625,1.001953125,2,447574,447564,8,80,0,0,0,8,83,10,1,74594,74594,223782,74594,1,1,5,0,0
2026-05-25T20:35:37.498,376292552,-1.347000002861023,-0.027000000700354576,-0.12800002098083496,-0.12800002098083496,1.8310546875,0.67138671875,-0.1220703125,0.01171875,-0.009765625,1.001953125,2,447580,447570,8,80,0,0,0,8,83,10,1,74595,74595,223785,74595,1,1,5,0,0
2026-05-25T20:35:37.503,376297553,-1.3370000123977661,-0.026000000536441803,-0.12800002098083496,-0.12800002098083496,1.8310546875,0.67138671875,-0.1220703125,0.01171875,-0.009765625,1.001953125,2,447586,447576,8,80,0,0,0,8,83,10,1,74596,74596,223788,74596,1,1,5,0,0
2026-05-25T20:35:37.508,376302554,-1.3259999752044678,-0.024000000208616257,-0.12800002098083496,-0.12800002098083496,1.8310546875,0.67138671875,-0.1220703125,0.01171875,-0.009765625,1.001953125,2,447592,447582,8,80,0,0,0,8,83,10,1,74597,74597,223791,74597,1,1,5,0,0
2026-05-25T20:35:37.513,376307554,-1.3209999799728394,-0.020999999716877937,-0.11699986457824707,-0.11699986457824707,0.91552734375,0.79345703125,2.0751953125,0.01171875,-0.009765625,1.001953125,2,447598,447588,8,80,0,0,0,8,83,10,1,74598,74598,223794,74598,1,1,5,0,0
2026-05-25T20:35:37.518,376312557,-1.315000057220459,-0.01899999938905239,-0.10599994659423828,-0.10599994659423828,0.91552734375,0.79345703125,2.0751953125,0.01171875,-0.009765625,1.001953125,2,447604,447594,8,80,0,0,0,8,83,10,1,74599,74599,223797,74599,1,1,5,0,0
2026-05-25T20:35:37.523,376317556,-1.309999942779541,-0.017000000923871994,-0.09500002861022949,-0.09500002861022949,0.8544921875,0.79345703125,2.0751953125,0.01171875,-0.009765625,1.001953125,2,447610,447600,8,80,0,0,0,8,83,10,1,74600,74600,223800,74600,1,1,5,0,0
2026-05-25T20:35:37.528,376322552,-1.3040000200271606,-0.014000000432133675,-0.08299994468688965,-0.08299994468688965,0.8544921875,0.79345703125,2.0751953125,0.01171875,-0.009765625,1.001953125,2,447616,447606,8,80,0,0,0,8,83,10,1,74601,74601,223803,74601,1,1,5,0,0
2026-05-25T20:35:37.533,376327554,-1.2990000247955322,-0.012000000104308128,-0.07200002670288086,-0.07200002670288086,0.8544921875,0.79345703125,2.0751953125,0.01171875,-0.009765625,1.001953125,2,447622,447612,8,80,0,0,0,8,83,10,1,74602,74602,223806,74602,1,1,5,0,0
2026-05-25T20:35:37.538,376332553,-1.2929999828338623,-0.008999999612569809,-0.06099987030029297,-0.06099987030029297,0.8544921875,0.79345703125,2.0751953125,0.01171875,-0.009765625,1.001953125,2,447628,447618,8,80,0,0,0,8,83,10,1,74603,74603,223809,74603,1,1,5,0,0
2026-05-25T20:35:37.543,376337553,-1.2879999876022339,-0.007000000216066837,-0.04999995231628418,-0.04999995231628418,0.91552734375,0.79345703125,2.0751953125,0.01171875,-0.009765625,1.001953125,2,447634,447624,8,80,0,0,0,8,83,10,1,74604,74604,223812,74604,1,1,5,0,0
2026-05-25T20:35:37.548,376342554,-1.2829999923706055,-0.004000000189989805,-0.03900003433227539,-0.03900003433227539,0.91552734375,0.79345703125,2.0751953125,0.01171875,-0.009765625,1.001953125,2,447640,447630,8,80,0,0,0,8,83,10,1,74605,74605,223815,74605,1,1,5,0,0
2026-05-25T20:35:37.553,376347556,-1.284000039100647,0.0020000000949949026,-0.023999929428100586,-0.023999929428100586,-0.3662109375,1.77001953125,2.8076171875,0.01171875,-0.009765625,1.001953125,2,447646,447636,8,80,0,0,0,8,83,10,1,74606,74606,223818,74606,1,1,5,0,0
2026-05-25T20:35:37.558,376352552,-1.284999966621399,0.008999999612569809,-0.009000062942504883,-0.009000062942504883,-0.3662109375,1.77001953125,2.8076171875,0.01171875,-0.009765625,1.001953125,2,447652,447642,8,80,0,0,0,8,83,10,1,74607,74607,223821,74607,1,1,5,0,0
2026-05-25T20:35:37.563,376357556,-1.2860000133514404,0.017000000923871994,0.006000041961669922,0.006000041961669922,-0.3662109375,1.77001953125,2.8076171875,0.01171875,-0.009765625,1.001953125,2,447658,447648,8,80,0,0,0,8,83,10,1,74608,74608,223824,74608,1,1,5,0,0
2026-05-25T20:35:37.568,376362558,-1.2869999408721924,0.024000000208616257,0.019999980926513672,0.019999980926513672,-0.3662109375,1.77001953125,2.8076171875,0.01171875,-0.009765625,1.001953125,2,447664,447654,8,80,0,0,0,8,83,10,1,74609,74609,223827,74609,1,1,5,0,0
2026-05-25T20:35:37.573,376367557,-1.2890000343322754,0.03200000151991844,0.03500008583068848,0.03500008583068848,-0.3662109375,1.77001953125,2.8076171875,0.01171875,-0.009765625,1.001953125,2,447670,447660,8,80,0,0,0,8,83,10,1,74610,74610,223830,74610,1,1,5,0,0
2026-05-25T20:35:37.578,376372554,-1.2899999618530273,0.039000000804662704,0.04999995231628418,0.04999995231628418,-0.3662109375,1.77001953125,2.8076171875,0.01171875,-0.009765625,1.001953125,2,447676,447666,8,80,0,0,0,8,83,10,1,74611,74611,223833,74611,1,1,5,0,0
2026-05-25T20:35:37.583,376377556,-1.2910000085830688,0.04600000008940697,0.06500005722045898,0.06500005722045898,-0.42724609375,1.77001953125,2.8076171875,0.01171875,-0.009765625,1.001953125,2,447682,447672,8,80,0,0,0,8,83,10,1,74612,74612,223836,74612,1,1,5,0,0
2026-05-25T20:35:37.588,376382557,-1.2929999828338623,0.05299999937415123,0.07500004768371582,0.07500004768371582,-1.3427734375,1.40380859375,-1.40380859375,0.01171875,-0.009765625,1.001953125,2,447688,447678,8,80,0,0,0,8,83,10,1,74613,74613,223839,74613,1,1,5,0,0
2026-05-25T20:35:37.593,376387553,-1.2990000247955322,0.057999998331069946,0.0690000057220459,0.0690000057220459,-1.3427734375,1.40380859375,-1.40380859375,0.01171875,-0.009765625,1.001953125,2,447694,447684,8,80,0,0,0,8,83,10,1,74614,74614,223842,74614,1,1,5,0,0
2026-05-25T20:35:37.598,376392552,-1.3049999475479126,0.06300000101327896,0.06200003623962402,0.06200003623962402,-1.3427734375,1.40380859375,-1.40380859375,0.01171875,-0.009765625,1.001953125,2,447700,447690,8,80,0,0,0,8,83,10,1,74615,74615,223845,74615,1,1,5,0,0
2026-05-25T20:35:37.603,376397554,-1.3109999895095825,0.06800000369548798,0.0559999942779541,0.0559999942779541,-1.28173828125,1.40380859375,-1.40380859375,0.01171875,-0.009765625,1.001953125,2,447706,447696,8,80,0,0,0,8,83,10,1,74616,74616,223848,74616,1,1,5,0,0
2026-05-25T20:35:37.608,376402553,-1.315999984741211,0.0729999989271164,0.04900002479553223,0.04900002479553223,-1.28173828125,1.40380859375,-1.40380859375,0.0185546875,0.00927734375,1.0,2,447712,447702,8,80,0,0,0,8,83,10,1,74617,74617,223851,74617,1,1,5,0,0
2026-05-25T20:35:37.613,376407556,-1.3209999799728394,0.07800000160932541,0.042999982833862305,0.042999982833862305,-1.28173828125,1.40380859375,-1.40380859375,0.0185546875,0.00927734375,1.0,2,447718,447708,8,80,0,0,0,8,83,10,1,74618,74618,223854,74618,1,1,5,0,0
2026-05-25T20:35:37.618,376412558,-1.3250000476837158,0.08299999684095383,0.03600001335144043,0.03600001335144043,-1.28173828125,1.40380859375,-1.40380859375,0.0185546875,0.00927734375,1.0,2,447724,447714,8,80,0,0,0,8,83,10,1,74619,74619,223857,74619,1,1,5,0,0
2026-05-25T20:35:37.623,376417553,-1.3300000429153442,0.08699999749660492,0.029999971389770508,0.029999971389770508,-1.28173828125,1.40380859375,-1.40380859375,0.0185546875,0.00927734375,1.0,2,447730,447720,8,80,0,0,0,8,83,10,1,74620,74620,223860,74620,1,1,5,0,0
2026-05-25T20:35:37.628,376422554,-1.3329999446868896,0.08799999952316284,0.02200007438659668,0.02200007438659668,-0.48828125,-1.708984375,-2.3193359375,0.0185546875,0.00927734375,1.0,2,447736,447726,8,80,0,0,0,8,83,10,1,74621,74621,223863,74621,1,1,5,0,0
2026-05-25T20:35:37.633,376427556,-1.3339999914169312,0.07699999958276749,0.01100015640258789,0.01100015640258789,-0.48828125,-1.708984375,-2.3193359375,0.0185546875,0.00927734375,1.0,2,447742,447732,8,80,0,0,0,8,83,10,1,74622,74622,223866,74622,1,1,5,0,0
2026-05-25T20:35:37.638,376432553,-1.3339999914169312,0.06599999964237213,0.0009999275207519531,0.0009999275207519531,-0.48828125,-1.708984375,-2.3193359375,0.0185546875,0.00927734375,1.0,2,447748,447738,8,80,0,0,0,8,83,10,1,74623,74623,223869,74623,1,1,5,0,0
2026-05-25T20:35:37.643,376437556,-1.3339999914169312,0.05400000140070915,-0.009999990463256836,-0.009999990463256836,-0.48828125,-1.708984375,-2.3193359375,0.0185546875,0.00927734375,1.0,2,447754,447744,8,80,0,0,0,8,83,10,1,74624,74624,223872,74624,1,1,5,0,0
2026-05-25T20:35:37.648,376442556,-1.3339999914169312,0.0430000014603138,-0.020999908447265625,-0.020999908447265625,-0.42724609375,-1.708984375,-2.3193359375,0.0185546875,0.00927734375,1.0,2,447760,447750,8,80,0,0,0,8,83,10,1,74625,74625,223875,74625,1,1,5,0,0
2026-05-25T20:35:37.653,376447559,-1.3339999914169312,0.03200000151991844,-0.032000064849853516,-0.032000064849853516,-0.42724609375,-1.708984375,-2.3193359375,0.0185546875,0.00927734375,1.0,2,447766,447756,8,80,0,0,0,8,83,10,1,74626,74626,223878,74626,1,1,5,0,0
2026-05-25T20:35:37.658,376452553,-1.3339999914169312,0.019999999552965164,-0.042999982833862305,-0.042999982833862305,-0.48828125,-1.708984375,-2.3193359375,0.0185546875,0.00927734375,1.0,2,447772,447762,8,80,0,0,0,8,83,10,1,74627,74627,223881,74627,1,1,5,0,0
2026-05-25T20:35:37.663,376457556,-1.3339999914169312,0.008999999612569809,-0.05299997329711914,-0.05299997329711914,-0.48828125,-1.708984375,-2.3193359375,0.0185546875,0.00927734375,1.0,2,447778,447768,8,80,0,0,0,8,83,10,1,74628,74628,223884,74628,1,1,5,0,0
2026-05-25T20:35:37.668,376462560,-1.3350000381469727,-0.0010000000474974513,-0.06299996376037598,-0.06299996376037598,-0.67138671875,-1.953125,-1.46484375,0.0185546875,0.00927734375,1.0,2,447784,447774,8,80,0,0,0,8,83,10,1,74629,74629,223887,74629,1,1,5,0,0
2026-05-25T20:35:37.673,376467556,-1.3359999656677246,-0.014000000432133675,-0.06999993324279785,-0.06999993324279785,-0.67138671875,-1.953125,-1.46484375,0.0185546875,0.00927734375,1.0,2,447790,447780,8,80,0,0,0,8,83,10,1,74630,74630,223890,74630,1,1,5,0,0
2026-05-25T20:35:37.678,376472554,-1.3370000123977661,-0.026000000536441803,-0.07599997520446777,-0.07599997520446777,-0.67138671875,-1.953125,-1.46484375,0.0185546875,0.00927734375,1.0,2,447796,447786,8,80,0,0,0,8,83,10,1,74631,74631,223893,74631,1,1,5,0,0
2026-05-25T20:35:37.683,376477557,-1.3380000591278076,-0.03799999877810478,-0.08299994468688965,-0.08299994468688965,-0.67138671875,-1.953125,-1.46484375,0.0185546875,0.00927734375,1.0,2,447802,447792,8,80,0,0,0,8,83,10,1,74632,74632,223896,74632,1,1,5,0,0
2026-05-25T20:35:37.688,376482554,-1.3389999866485596,-0.050999999046325684,-0.08899998664855957,-0.08899998664855957,-0.67138671875,-1.953125,-1.46484375,0.0185546875,0.00927734375,1.0,2,447808,447798,8,80,0,0,0,8,83,10,1,74633,74633,223899,74633,1,1,5,0,0
2026-05-25T20:35:37.693,376487558,-1.340000033378601,-0.06300000101327896,-0.09599995613098145,-0.09599995613098145,-0.67138671875,-1.953125,-1.46484375,0.0185546875,0.00927734375,1.0,2,447814,447804,8,80,0,0,0,8,83,10,1,74634,74634,223902,74634,1,1,5,0,0
2026-05-25T20:35:37.698,376492556,-1.340999960899353,-0.07500000298023224,-0.10199999809265137,-0.10199999809265137,-0.67138671875,-1.953125,-1.46484375,0.0185546875,0.00927734375,1.0,2,447820,447810,8,80,0,0,0,8,83,10,1,74635,74635,223905,74635,1,1,5,0,0
2026-05-25T20:35:37.703,376497556,-1.3420000076293945,-0.08799999952316284,-0.10899996757507324,-0.10899996757507324,-0.67138671875,-1.953125,-1.46484375,0.0185546875,0.00927734375,1.0,2,447826,447816,8,80,0,0,0,8,83,10,1,74636,74636,223908,74636,1,1,5,0,0
2026-05-25T20:35:37.708,376502557,-1.3420000076293945,-0.09799999743700027,-0.1119999885559082,-0.1119999885559082,-0.244140625,-0.48828125,2.13623046875,0.0185546875,0.00927734375,1.0,2,447832,447822,8,80,0,0,0,8,83,10,1,74637,74637,223911,74637,1,1,5,0,0
2026-05-25T20:35:37.713,376507559,-1.340999960899353,-0.10300000011920929,-0.09999990463256836,-0.09999990463256836,-0.244140625,-0.48828125,2.13623046875,0.0185546875,0.00927734375,1.0,2,447838,447828,8,80,0,0,0,8,83,10,1,74638,74638,223914,74638,1,1,5,0,0
2026-05-25T20:35:37.718,376512552,-1.340000033378601,-0.1080000028014183,-0.08800005912780762,-0.08800005912780762,-0.244140625,-0.48828125,2.13623046875,0.0185546875,0.00927734375,1.0,2,447844,447834,8,80,0,0,0,8,83,10,1,74639,74639,223917,74639,1,1,5,0,0
2026-05-25T20:35:37.723,376517552,-1.3389999866485596,-0.1120000034570694,-0.07699990272521973,-0.07699990272521973,-0.244140625,-0.48828125,2.13623046875,0.0185546875,0.00927734375,1.0,2,447850,447840,8,80,0,0,0,8,83,10,1,74640,74640,223920,74640,1,1,5,0,0
2026-05-25T20:35:37.728,376522552,-1.3380000591278076,-0.11699999868869781,-0.06500005722045898,-0.06500005722045898,-0.18310546875,-0.48828125,2.13623046875,0.0185546875,0.00927734375,1.0,2,447856,447846,8,80,0,0,0,8,83,10,1,74641,74641,223923,74641,1,1,5,0,0
2026-05-25T20:35:37.733,376527554,-1.3370000123977661,-0.12099999934434891,-0.05299997329711914,-0.05299997329711914,-0.18310546875,-0.48828125,2.13623046875,0.0185546875,0.00927734375,1.0,2,447862,447852,8,80,0,0,0,8,83,10,1,74642,74642,223926,74642,1,1,5,0,0
2026-05-25T20:35:37.738,376532552,-1.3359999656677246,-0.125,-0.04200005531311035,-0.04200005531311035,-0.244140625,-0.48828125,2.13623046875,0.0029296875,0.00146484375,1.0029296875,2,447868,447858,8,80,0,0,0,8,83,10,1,74643,74643,223929,74643,1,1,5,0,0
2026-05-25T20:35:37.743,376537553,-1.3350000381469727,-0.1289999932050705,-0.029999971389770508,-0.029999971389770508,-0.244140625,-0.48828125,2.13623046875,0.0029296875,0.00146484375,1.0029296875,2,447874,447864,8,80,0,0,0,8,83,10,1,74644,74644,223932,74644,1,1,5,0,0
2026-05-25T20:35:37.748,376542554,-1.3339999914169312,-0.12999999523162842,-0.014999866485595703,-0.014999866485595703,1.0986328125,1.52587890625,5.31005859375,0.0029296875,0.00146484375,1.0029296875,2,447880,447870,8,80,0,0,0,8,83,10,1,74645,74645,223935,74645,1,1,5,0,0
2026-05-25T20:35:37.753,376547553,-1.3259999752044678,-0.12300000339746475,0.012000083923339844,0.012000083923339844,1.03759765625,1.52587890625,5.31005859375,0.0029296875,0.00146484375,1.0029296875,2,447886,447876,8,80,0,0,0,8,83,10,1,74646,74646,223938,74646,1,1,5,0,0
2026-05-25T20:35:37.758,376552552,-1.319000005722046,-0.11500000208616257,0.03900003433227539,0.03900003433227539,1.0986328125,1.52587890625,5.31005859375,0.0029296875,0.00146484375,1.0029296875,2,447892,447882,8,80,0,0,0,8,83,10,1,74647,74647,223941,74647,1,1,5,0,0
2026-05-25T20:35:37.763,376557566,-1.312000036239624,-0.1080000028014183,0.06599998474121094,0.06599998474121094,1.0986328125,1.52587890625,5.31005859375,0.0029296875,0.00146484375,1.0029296875,2,447898,447888,8,80,0,0,0,8,83,10,1,74648,74648,223944,74648,1,1,5,0,0
2026-05-25T20:35:37.768,376562555,-1.3049999475479126,-0.10100000351667404,0.09400010108947754,0.09400010108947754,1.03759765625,1.52587890625,5.31005859375,0.0029296875,0.00146484375,1.0029296875,2,447904,447894,8,80,0,0,0,8,83,10,1,74649,74649,223947,74649,1,1,5,0,0
2026-05-25T20:35:37.773,376567556,-1.2970000505447388,-0.09300000220537186,0.12100005149841309,0.12100005149841309,1.03759765625,1.52587890625,5.31005859375,0.0029296875,0.00146484375,1.0029296875,2,447910,447900,8,80,0,0,0,8,83,10,1,74650,74650,223950,74650,1,1,5,0,0
2026-05-25T20:35:37.778,376572554,-1.2899999618530273,-0.0860000029206276,0.14800000190734863,0.14800000190734863,1.0986328125,1.52587890625,5.31005859375,0.0029296875,0.00146484375,1.0029296875,2,447916,447906,8,80,0,0,0,8,83,10,1,74651,74651,223953,74651,1,1,5,0,0
2026-05-25T20:35:37.783,376577552,-1.2829999923706055,-0.07800000160932541,0.17600011825561523,0.17600011825561523,1.0986328125,1.52587890625,5.31005859375,0.0029296875,0.00146484375,1.0029296875,2,447922,447912,8,80,0,0,0,8,83,10,1,74652,74652,223956,74652,1,1,5,0,0
2026-05-25T20:35:37.788,376582553,-1.2760000228881836,-0.0729999989271164,0.1979999542236328,0.1979999542236328,1.15966796875,-0.06103515625,0.3662109375,0.0029296875,0.00146484375,1.0029296875,2,447928,447918,8,80,0,0,0,8,83,10,1,74653,74653,223959,74653,1,1,5,0,0
2026-05-25T20:35:37.793,376587554,-1.2680000066757202,-0.07400000095367432,0.20099997520446777,0.20099997520446777,1.0986328125,-0.06103515625,0.3662109375,0.0029296875,0.00146484375,1.0029296875,2,447934,447924,8,80,0,0,0,8,83,10,1,74654,74654,223962,74654,1,1,5,0,0
2026-05-25T20:35:37.798,376592552,-1.2610000371932983,-0.07599999755620956,0.20300006866455078,0.20300006866455078,1.15966796875,-0.06103515625,0.3662109375,0.0029296875,0.00146484375,1.0029296875,2,447940,447930,8,80,0,0,0,8,83,10,1,74655,74655,223965,74655,1,1,5,0,0
2026-05-25T20:35:37.803,376597554,-1.253000020980835,-0.07699999958276749,0.20600008964538574,0.20600008964538574,1.15966796875,-0.06103515625,0.3662109375,0.0029296875,0.00146484375,1.0029296875,2,447946,447936,8,80,0,0,0,8,83,10,1,74656,74656,223968,74656,1,1,5,0,0
2026-05-25T20:35:37.808,376602554,-1.246000051498413,-0.07900000363588333,0.2090001106262207,0.2090001106262207,1.15966796875,-0.06103515625,0.3662109375,0.0029296875,0.00146484375,1.0029296875,2,447952,447942,8,80,0,0,0,8,83,10,1,74657,74657,223971,74657,1,1,5,0,0
2026-05-25T20:35:37.813,376607557,-1.2380000352859497,-0.07999999821186066,0.21200013160705566,0.21200013160705566,1.15966796875,-0.06103515625,0.3662109375,0.0029296875,0.00146484375,1.0029296875,2,447958,447948,8,80,0,0,0,8,83,10,1,74658,74658,223974,74658,1,1,5,0,0
2026-05-25T20:35:37.818,376612557,-1.2309999465942383,-0.0820000022649765,0.21399998664855957,0.21399998664855957,1.0986328125,-0.06103515625,0.3662109375,0.0029296875,0.00146484375,1.0029296875,2,447964,447954,8,80,0,0,0,8,83,10,1,74659,74659,223977,74659,1,1,5,0,0
2026-05-25T20:35:37.823,376617554,-1.2230000495910645,-0.08399999886751175,0.21700000762939453,0.21700000762939453,1.15966796875,-0.06103515625,0.3662109375,0.0029296875,0.00146484375,1.0029296875,2,447970,447960,8,80,0,0,0,8,83,10,1,74660,74660,223980,74660,1,1,5,0,0
2026-05-25T20:35:37.828,376622556,-1.215000033378601,-0.0860000029206276,0.21700000762939453,0.21700000762939453,2.13623046875,-0.67138671875,-2.01416015625,0.0029296875,0.00146484375,1.0029296875,2,447976,447966,8,80,0,0,0,8,83,10,1,74661,74661,223983,74661,1,1,5,0,0
2026-05-25T20:35:37.833,376627556,-1.2020000219345093,-0.09099999815225601,0.20799994468688965,0.20799994468688965,2.13623046875,-0.67138671875,-2.01416015625,0.0029296875,0.00146484375,1.0029296875,2,447982,447972,8,80,0,0,0,8,83,10,1,74662,74662,223986,74662,1,1,5,0,0
2026-05-25T20:35:37.838,376632554,-1.190000057220459,-0.0949999988079071,0.1979999542236328,0.1979999542236328,2.13623046875,-0.67138671875,-2.01416015625,0.0029296875,0.00146484375,1.0029296875,2,447988,447978,8,80,0,0,0,8,83,10,1,74663,74663,223989,74663,1,1,5,0,0
2026-05-25T20:35:37.843,376637557,-1.1779999732971191,-0.10000000149011612,0.18900012969970703,0.18900012969970703,2.13623046875,-0.67138671875,-2.01416015625,0.0029296875,0.00146484375,1.0029296875,2,447994,447984,8,80,0,0,0,8,83,10,1,74664,74664,223992,74664,1,1,5,0,0
2026-05-25T20:35:37.848,376642552,-1.1649999618530273,-0.10499999672174454,0.1790001392364502,0.1790001392364502,2.13623046875,-0.67138671875,-2.01416015625,0.0029296875,0.00146484375,1.0029296875,2,448000,447990,8,80,0,0,0,8,83,10,1,74665,74665,223995,74665,1,1,5,0,0
2026-05-25T20:35:37.853,376647554,-1.152999997138977,-0.10999999940395355,0.1700000762939453,0.1700000762939453,2.13623046875,-0.67138671875,-2.01416015625,0.0029296875,0.00146484375,1.0029296875,2,448006,447996,8,80,0,0,0,8,83,10,1,74666,74666,223998,74666,1,1,5,0,0
2026-05-25T20:35:37.858,376652553,-1.1410000324249268,-0.11500000208616257,0.16100001335144043,0.16100001335144043,2.13623046875,-0.67138671875,-2.01416015625,0.0029296875,0.00146484375,1.0029296875,2,448012,448002,8,80,0,0,0,8,83,10,1,74667,74667,224001,74667,1,1,5,0,0
2026-05-25T20:35:37.863,376657562,-1.128000020980835,-0.11999999731779099,0.1510000228881836,0.1510000228881836,2.13623046875,-0.67138671875,-2.01416015625,0.01171875,0.00390625,1.001953125,2,448018,448008,8,80,0,0,0,8,83,10,1,74668,74668,224004,74668,1,1,5,0,0
2026-05-25T20:35:37.868,376662556,-1.1180000305175781,-0.11800000071525574,0.14400005340576172,0.14400005340576172,0.54931640625,5.67626953125,0.42724609375,0.01171875,0.00390625,1.001953125,2,448024,448014,8,80,0,0,0,8,83,10,1,74669,74669,224007,74669,1,1,5,0,0
2026-05-25T20:35:37.873,376667556,-1.1130000352859497,-0.09200000017881393,0.14700007438659668,0.14700007438659668,0.54931640625,5.67626953125,0.42724609375,0.01171875,0.00390625,1.001953125,2,448030,448020,8,80,0,0,0,8,83,10,1,74670,74670,224010,74670,1,1,5,0,0
2026-05-25T20:35:37.878,376672552,-1.1089999675750732,-0.06499999761581421,0.14899992942810059,0.14899992942810059,0.54931640625,5.67626953125,0.42724609375,0.01171875,0.00390625,1.001953125,2,448036,448026,8,80,0,0,0,8,83,10,1,74671,74671,224013,74671,1,1,5,0,0
2026-05-25T20:35:37.883,376677554,-1.1039999723434448,-0.03799999877810478,0.15199995040893555,0.15199995040893555,0.54931640625,5.67626953125,0.42724609375,0.01171875,0.00390625,1.001953125,2,448042,448032,8,80,0,0,0,8,83,10,1,74672,74672,224016,74672,1,1,5,0,0
2026-05-25T20:35:37.888,376682554,-1.100000023841858,-0.010999999940395355,0.15400004386901855,0.15400004386901855,0.54931640625,5.67626953125,0.42724609375,0.01171875,0.00390625,1.001953125,2,448048,448038,8,80,0,0,0,8,83,10,1,74673,74673,224019,74673,1,1,5,0,0
2026-05-25T20:35:37.893,376687557,-1.0950000286102295,0.014000000432133675,0.15700006484985352,0.15700006484985352,0.54931640625,5.67626953125,0.42724609375,0.01171875,0.00390625,1.001953125,2,448054,448044,8,80,0,0,0,8,83,10,1,74674,74674,224022,74674,1,1,5,0,0
2026-05-25T20:35:37.898,376692554,-1.090999960899353,0.04100000113248825,0.15900015830993652,0.15900015830993652,0.54931640625,5.67626953125,0.42724609375,0.01171875,0.00390625,1.001953125,2,448060,448050,8,80,0,0,0,8,83,10,1,74675,74675,224025,74675,1,1,5,0,0
2026-05-25T20:35:37.903,376697556,-1.0859999656677246,0.06800000369548798,0.16199994087219238,0.16199994087219238,0.54931640625,5.67626953125,0.42724609375,0.01171875,0.00390625,1.001953125,2,448066,448056,8,80,0,0,0,8,83,10,1,74676,74676,224028,74676,1,1,5,0,0
2026-05-25T20:35:37.908,376702557,-1.0829999446868896,0.07500000298023224,0.15900015830993652,0.15900015830993652,0.0,-3.84521484375,-2.25830078125,0.01171875,0.00390625,1.001953125,2,448072,448062,8,80,0,0,0,8,83,10,1,74677,74677,224031,74677,1,1,5,0,0
2026-05-25T20:35:37.913,376707554,-1.0809999704360962,0.05299999937415123,0.14899992942810059,0.14899992942810059,0.0,-3.84521484375,-2.25830078125,0.01171875,0.00390625,1.001953125,2,448078,448068,8,80,0,0,0,8,83,10,1,74678,74678,224034,74678,1,1,5,0,0
2026-05-25T20:35:37.918,376712557,-1.0789999961853027,0.03200000151991844,0.13899993896484375,0.13899993896484375,0.0,-3.84521484375,-2.25830078125,0.01171875,0.00390625,1.001953125,2,448084,448074,8,80,0,0,0,8,83,10,1,74679,74679,224037,74679,1,1,5,0,0
2026-05-25T20:35:37.923,376717556,-1.0770000219345093,0.010999999940395355,0.12800002098083496,0.12800002098083496,0.0,-3.84521484375,-2.25830078125,0.01171875,0.00390625,1.001953125,2,448090,448080,8,80,0,0,0,8,83,10,1,74680,74680,224040,74680,1,1,5,0,0
2026-05-25T20:35:37.928,376722554,-1.0750000476837158,-0.009999999776482582,0.11800003051757812,0.11800003051757812,0.0,-3.84521484375,-2.25830078125,0.01171875,0.00390625,1.001953125,2,448096,448086,8,80,0,0,0,8,83,10,1,74681,74681,224043,74681,1,1,5,0,0
2026-05-25T20:35:37.933,376727558,-1.0729999542236328,-0.03099999949336052,0.10700011253356934,0.10700011253356934,0.0,-3.84521484375,-2.25830078125,0.01171875,0.00390625,1.001953125,2,448102,448092,8,80,0,0,0,8,83,10,1,74682,74682,224046,74682,1,1,5,0,0
2026-05-25T20:35:37.938,376732556,-1.0709999799728394,-0.05299999937415123,0.0970001220703125,0.0970001220703125,0.0,-3.84521484375,-2.25830078125,0.01171875,0.00390625,1.001953125,2,448108,448098,8,80,0,0,0,8,83,10,1,74683,74683,224049,74683,1,1,5,0,0
2026-05-25T20:35:37.943,376737554,-1.069000005722046,-0.07400000095367432,0.08700013160705566,0.08700013160705566,0.0,-3.84521484375,-2.25830078125,0.01171875,0.00390625,1.001953125,2,448114,448104,8,80,0,0,0,8,83,10,1,74684,74684,224052,74684,1,1,5,0,0
2026-05-25T20:35:37.948,376742556,-1.0709999799728394,-0.09000000357627869,0.08599996566772461,0.08599996566772461,-1.89208984375,-1.15966796875,2.62451171875,0.01171875,0.00390625,1.001953125,2,448120,448110,8,80,0,0,0,8,83,10,1,74685,74685,224055,74685,1,1,5,0,0
2026-05-25T20:35:37.953,376747557,-1.0789999961853027,-0.09700000286102295,0.10000014305114746,0.10000014305114746,-1.89208984375,-1.15966796875,2.62451171875,0.01171875,0.00390625,1.001953125,2,448126,448116,8,80,0,0,0,8,83,10,1,74686,74686,224058,74686,1,1,5,0,0
2026-05-25T20:35:37.958,376752554,-1.0870000123977661,-0.10499999672174454,0.11400008201599121,0.11400008201599121,-1.89208984375,-1.15966796875,2.62451171875,0.01171875,0.00390625,1.001953125,2,448132,448122,8,80,0,0,0,8,83,10,1,74687,74687,224061,74687,1,1,5,0,0
2026-05-25T20:35:37.963,376757557,-1.0950000286102295,-0.1120000034570694,0.12899994850158691,0.12899994850158691,-1.89208984375,-1.15966796875,2.62451171875,0.01171875,0.00390625,1.001953125,2,448138,448128,8,80,0,0,0,8,83,10,1,74688,74688,224064,74688,1,1,5,0,0
2026-05-25T20:35:37.968,376762560,-1.1030000448226929,-0.11900000274181366,0.14300012588500977,0.14300012588500977,-1.89208984375,-1.15966796875,2.62451171875,0.01171875,0.00390625,1.001953125,2,448144,448134,8,80,0,0,0,8,83,10,1,74689,74689,224067,74689,1,1,5,0,0
2026-05-25T20:35:37.973,376767560,-1.1109999418258667,-0.12700000405311584,0.15700006484985352,0.15700006484985352,-1.89208984375,-1.15966796875,2.62451171875,0.01171875,0.00390625,1.001953125,2,448150,448140,8,80,0,0,0,8,83,10,1,74690,74690,224070,74690,1,1,5,0,0
2026-05-25T20:35:37.978,376772552,-1.1180000305175781,-0.1340000033378601,0.17100000381469727,0.17100000381469727,-1.89208984375,-1.15966796875,2.62451171875,0.01171875,0.00390625,1.001953125,2,448156,448146,8,80,0,0,0,8,83,10,1,74691,74691,224073,74691,1,1,5,0,0
2026-05-25T20:35:37.983,376777553,-1.1260000467300415,-0.1420000046491623,0.18499994277954102,0.18499994277954102,-1.89208984375,-1.15966796875,2.62451171875,0.01171875,0.00390625,1.001953125,2,448162,448152,8,80,0,0,0,8,83,10,1,74692,74692,224076,74692,1,1,5,0,0
2026-05-25T20:35:37.988,376782554,-1.1319999694824219,-0.1459999978542328,0.19900012016296387,0.19900012016296387,-0.79345703125,0.244140625,2.50244140625,0.0224609375,0.00732421875,0.99951171875,2,448168,448158,8,80,0,0,0,8,83,10,1,74693,74693,224079,74693,1,1,5,0,0
2026-05-25T20:35:37.993,376787554,-1.1339999437332153,-0.1469999998807907,0.21200013160705566,0.21200013160705566,-0.8544921875,0.244140625,2.50244140625,0.0224609375,0.00732421875,0.99951171875,2,448174,448164,8,80,0,0,0,8,83,10,1,74694,74694,224082,74694,1,1,5,0,0
2026-05-25T20:35:37.998,376792553,-1.1369999647140503,-0.14800000190734863,0.22600007057189941,0.22600007057189941,-0.8544921875,0.244140625,2.50244140625,0.0224609375,0.00732421875,0.99951171875,2,448180,448170,8,80,0,0,0,8,83,10,1,74695,74695,224085,74695,1,1,5,0,0
2026-05-25T20:35:38.003,376797556,-1.1390000581741333,-0.14800000190734863,0.2390000820159912,0.2390000820159912,-0.8544921875,0.244140625,2.50244140625,0.0224609375,0.00732421875,0.99951171875,2,448186,448176,8,80,0,0,0,8,83,10,1,74696,74696,224088,74696,1,1,5,0,0
2026-05-25T20:35:38.008,376802553,-1.1419999599456787,-0.14900000393390656,0.25300002098083496,0.25300002098083496,-0.8544921875,0.244140625,2.50244140625,0.0224609375,0.00732421875,0.99951171875,2,448192,448182,8,80,0,0,0,8,83,10,1,74697,74697,224091,74697,1,1,5,0,0
2026-05-25T20:35:38.013,376807556,-1.1440000534057617,-0.15000000596046448,0.26600003242492676,0.26600003242492676,-0.8544921875,0.244140625,2.50244140625,0.0224609375,0.00732421875,0.99951171875,2,448198,448188,8,80,0,0,0,8,83,10,1,74698,74698,224094,74698,1,1,5,0,0
2026-05-25T20:35:38.018,376812558,-1.1460000276565552,-0.1509999930858612,0.27900004386901855,0.27900004386901855,-0.8544921875,0.244140625,2.50244140625,0.0224609375,0.00732421875,0.99951171875,2,448204,448194,8,80,0,0,0,8,83,10,1,74699,74699,224097,74699,1,1,5,0,0
2026-05-25T20:35:38.023,376817554,-1.1490000486373901,-0.15199999511241913,0.2929999828338623,0.2929999828338623,-0.8544921875,0.244140625,2.50244140625,0.0224609375,0.00732421875,0.99951171875,2,448210,448200,8,80,0,0,0,8,83,10,1,74700,74700,224100,74700,1,1,5,0,0
2026-05-25T20:35:38.028,376822556,-1.1440000534057617,-0.1550000011920929,0.30100011825561523,0.30100011825561523,2.86865234375,-0.91552734375,0.0,0.0224609375,0.00732421875,0.99951171875,2,448216,448206,8,80,0,0,0,8,83,10,1,74701,74701,224103,74701,1,1,5,0,0
2026-05-25T20:35:38.033,376827557,-1.1269999742507935,-0.16200000047683716,0.3020000457763672,0.3020000457763672,2.86865234375,-0.91552734375,0.0,0.0224609375,0.00732421875,0.99951171875,2,448222,448212,8,80,0,0,0,8,83,10,1,74702,74702,224106,74702,1,1,5,0,0
2026-05-25T20:35:38.038,376832553,-1.1109999418258667,-0.16899999976158142,0.30299997329711914,0.30299997329711914,2.86865234375,-0.91552734375,0.0,0.0224609375,0.00732421875,0.99951171875,2,448228,448218,8,80,0,0,0,8,83,10,1,74703,74703,224109,74703,1,1,5,0,0
2026-05-25T20:35:38.043,376837554,-1.0950000286102295,-0.1770000010728836,0.3040001392364502,0.3040001392364502,2.86865234375,-0.91552734375,0.0,0.0224609375,0.00732421875,0.99951171875,2,448234,448224,8,80,0,0,0,8,83,10,1,74704,74704,224112,74704,1,1,5,0,0
2026-05-25T20:35:38.048,376842564,-1.0779999494552612,-0.18400000035762787,0.30500006675720215,0.30500006675720215,2.8076171875,-0.91552734375,0.0,0.0224609375,0.00732421875,0.99951171875,2,448240,448230,8,80,0,0,0,8,83,10,1,74705,74705,224115,74705,1,1,5,0,0
2026-05-25T20:35:38.053,376847558,-1.062000036239624,-0.19099999964237213,0.3059999942779541,0.3059999942779541,2.8076171875,-0.91552734375,0.0,0.0224609375,0.00732421875,0.99951171875,2,448246,448236,8,80,0,0,0,8,83,10,1,74706,74706,224118,74706,1,1,5,0,0
2026-05-25T20:35:38.058,376852554,-1.0460000038146973,-0.1979999989271164,0.30699992179870605,0.30699992179870605,2.8076171875,-0.91552734375,0.0,0.0224609375,0.00732421875,0.99951171875,2,448252,448242,8,80,0,0,0,8,83,10,1,74707,74707,224121,74707,1,1,5,0,0
